Time,Header.seq,Header.stamp.secs,Header.stamp.nsecs,Header.frame_id,IMU.header.seq,IMU.header.stamp.secs,IMU.header.stamp.nsecs,IMU.header.frame_id,IMU.orientation.x,IMU.orientation.y,IMU.orientation.z,IMU.orientation.w,IMU.orientation_covariance,IMU.angular_velocity.x,IMU.angular_velocity.y,IMU.angular_velocity.z,IMU.angular_velocity_covariance,IMU.linear_acceleration.x,IMU.linear_acceleration.y,IMU.linear_acceleration.z,IMU.linear_acceleration_covariance,MagField.header.seq,MagField.header.stamp.secs,MagField.header.stamp.nsecs,MagField.header.frame_id,MagField.magnetic_field.x,MagField.magnetic_field.y,MagField.magnetic_field.z,MagField.magnetic_field_covariance,VNYMR
1666974629.133227,0,1666974629,132905483,IMU1_Frame,0,0,0,,0.030253346915681965,0.05025690473427399,-0.4130780360630144,0.908804442467824,"(0.0, 0.0, 0.0, 0.0, 0.0, 0.0, 0.0, 0.0, 0.0)",-0.018576,-0.028613,-0.238516,"(0.0, 0.0, 0.0, 0.0, 0.0, 0.0, 0.0, 0.0, 0.0)",0.3,-1.013,-9.521,"(0.0, 0.0, 0.0, 0.0, 0.0, 0.0, 0.0, 0.0, 0.0)",0,0,0,,0.2578,-0.2709,0.6531,"(0.0, 0.0, 0.0, 0.0, 0.0, 0.0, 0.0, 0.0, 0.0)","b'$VNYMR,-048.841,+006.681,+000.777,+00.2578,-00.2709,+00.6531,+00.300,-01.013,-09.521,-00.018576,-00.028613,-00.238516"
1666974629.1563327,0,1666974629,156070709,IMU1_Frame,0,0,0,,0.02982859611326771,0.05010382657224032,-0.4157690098918545,0.907599025908621,"(0.0, 0.0, 0.0, 0.0, 0.0, 0.0, 0.0, 0.0, 0.0)",-0.006079,-0.026125,-0.236803,"(0.0, 0.0, 0.0, 0.0, 0.0, 0.0, 0.0, 0.0, 0.0)",0.11,-0.73,-9.384,"(0.0, 0.0, 0.0, 0.0, 0.0, 0.0, 0.0, 0.0, 0.0)",0,0,0,,0.2636,-0.2562,0.6499,"(0.0, 0.0, 0.0, 0.0, 0.0, 0.0, 0.0, 0.0, 0.0)","b'$VNYMR,-049.183,+006.647,+000.720,+00.2636,-00.2562,+00.6499,+00.110,-00.730,-09.384,-00.006079,-00.026125,-00.236803"
1666974629.183568,0,1666974629,182730674,IMU1_Frame,0,0,0,,0.029675807900523432,0.04990484873112234,-0.4184371509272417,0.9063879981677095,"(0.0, 0.0, 0.0, 0.0, 0.0, 0.0, 0.0, 0.0, 0.0)",0.018036,-0.015904,-0.235867,"(0.0, 0.0, 0.0, 0.0, 0.0, 0.0, 0.0, 0.0, 0.0)",0.046,-0.605,-9.796,"(0.0, 0.0, 0.0, 0.0, 0.0, 0.0, 0.0, 0.0, 0.0)",0,0,0,,0.2616,-0.2631,0.6432,"(0.0, 0.0, 0.0, 0.0, 0.0, 0.0, 0.0, 0.0, 0.0)","b'$VNYMR,-049.521,+006.621,+000.694,+00.2616,-00.2631,+00.6432,+00.046,-00.605,-09.796,+00.018036,-00.015904,-00.235867"
1666974629.208948,0,1666974629,208021163,IMU1_Frame,0,0,0,,0.029816479774505435,0.049618353545121036,-0.4211082626759561,0.9051612163760474,"(0.0, 0.0, 0.0, 0.0, 0.0, 0.0, 0.0, 0.0, 0.0)",0.045087,-0.00695,-0.237617,"(0.0, 0.0, 0.0, 0.0, 0.0, 0.0, 0.0, 0.0, 0.0)",0.419,-0.689,-8.883,"(0.0, 0.0, 0.0, 0.0, 0.0, 0.0, 0.0, 0.0, 0.0)",0,0,0,,0.2626,-0.2641,0.6565,"(0.0, 0.0, 0.0, 0.0, 0.0, 0.0, 0.0, 0.0, 0.0)","b'$VNYMR,-049.858,+006.600,+000.703,+00.2626,-00.2641,+00.6565,+00.419,-00.689,-08.883,+00.045087,-00.006950,-00.237617"
1666974629.2332587,0,1666974629,232503652,IMU1_Frame,0,0,0,,0.030120052504014515,0.04918694310057628,-0.42380296509894705,0.9039161873973254,"(0.0, 0.0, 0.0, 0.0, 0.0, 0.0, 0.0, 0.0, 0.0)",0.047787,-0.03431,-0.2368,"(0.0, 0.0, 0.0, 0.0, 0.0, 0.0, 0.0, 0.0, 0.0)",0.165,-0.822,-9.57,"(0.0, 0.0, 0.0, 0.0, 0.0, 0.0, 0.0, 0.0, 0.0)",0,0,0,,0.2673,-0.2642,0.6557,"(0.0, 0.0, 0.0, 0.0, 0.0, 0.0, 0.0, 0.0, 0.0)","b'$VNYMR,-050.197,+006.572,+000.736,+00.2673,-00.2642,+00.6557,+00.165,-00.822,-09.570,+00.047787,-00.034310,-00.236800"
1666974629.2634616,0,1666974629,262572050,IMU1_Frame,0,0,0,,0.030458204809057487,0.04880374222307536,-0.4265482450113203,0.9026334179403042,"(0.0, 0.0, 0.0, 0.0, 0.0, 0.0, 0.0, 0.0, 0.0)",0.047351,-0.010214,-0.242562,"(0.0, 0.0, 0.0, 0.0, 0.0, 0.0, 0.0, 0.0, 0.0)",-0.07,-1.375,-10.257,"(0.0, 0.0, 0.0, 0.0, 0.0, 0.0, 0.0, 0.0, 0.0)",0,0,0,,0.2644,-0.2701,0.6556,"(0.0, 0.0, 0.0, 0.0, 0.0, 0.0, 0.0, 0.0, 0.0)","b'$VNYMR,-050.543,+006.551,+000.770,+00.2644,-00.2701,+00.6556,-00.070,-01.375,-10.257,+00.047351,-00.010214,-00.242562"
1666974629.2909918,0,1666974629,290166854,IMU1_Frame,0,0,0,,0.03064667811589442,0.04854669912368478,-0.42933428775134,0.9013190714090683,"(0.0, 0.0, 0.0, 0.0, 0.0, 0.0, 0.0, 0.0, 0.0)",0.027186,-0.004289,-0.248912,"(0.0, 0.0, 0.0, 0.0, 0.0, 0.0, 0.0, 0.0, 0.0)",0.509,-1.483,-9.814,"(0.0, 0.0, 0.0, 0.0, 0.0, 0.0, 0.0, 0.0, 0.0)",0,0,0,,0.2663,-0.2702,0.6568,"(0.0, 0.0, 0.0, 0.0, 0.0, 0.0, 0.0, 0.0, 0.0)","b'$VNYMR,-050.896,+006.536,+000.782,+00.2663,-00.2702,+00.6568,+00.509,-01.483,-09.814,+00.027186,-00.004289,-00.248912"
1666974629.334023,0,1666974629,306441307,IMU1_Frame,0,0,0,,0.030578577672725198,0.048430212425603573,-0.432180110380659,0.89996656454742,"(0.0, 0.0, 0.0, 0.0, 0.0, 0.0, 0.0, 0.0, 0.0)",0.001808,-0.012744,-0.25328,"(0.0, 0.0, 0.0, 0.0, 0.0, 0.0, 0.0, 0.0, 0.0)",0.349,-1.313,-9.767,"(0.0, 0.0, 0.0, 0.0, 0.0, 0.0, 0.0, 0.0, 0.0)",0,0,0,,0.2645,-0.2592,0.64,"(0.0, 0.0, 0.0, 0.0, 0.0, 0.0, 0.0, 0.0, 0.0)","b'$VNYMR,-051.259,+006.523,+000.760,+00.2645,-00.2592,+00.6400,+00.349,-01.313,-09.767,+00.001808,-00.012744,-00.253280"
1666974629.3785,0,1666974629,334914922,IMU1_Frame,0,0,0,,0.03038995797911819,0.04842087218662606,-0.43505247144643117,0.8985884579044325,"(0.0, 0.0, 0.0, 0.0, 0.0, 0.0, 0.0, 0.0, 0.0)",-0.004467,-0.010165,-0.257148,"(0.0, 0.0, 0.0, 0.0, 0.0, 0.0, 0.0, 0.0, 0.0)",0.04,-1.257,-10.259,"(0.0, 0.0, 0.0, 0.0, 0.0, 0.0, 0.0, 0.0, 0.0)",0,0,0,,0.2665,-0.2523,0.6466,"(0.0, 0.0, 0.0, 0.0, 0.0, 0.0, 0.0, 0.0, 0.0)","b'$VNYMR,-051.627,+006.515,+000.720,+00.2665,-00.2523,+00.6466,+00.040,-01.257,-10.259,-00.004467,-00.010165,-00.257148"
1666974629.378536,0,1666974629,357651472,IMU1_Frame,0,0,0,,0.03017813106088023,0.04846340973397068,-0.43792545932202914,0.8971966731994826,"(0.0, 0.0, 0.0, 0.0, 0.0, 0.0, 0.0, 0.0, 0.0)",-0.000977,0.004351,-0.259031,"(0.0, 0.0, 0.0, 0.0, 0.0, 0.0, 0.0, 0.0, 0.0)",-0.12,-0.988,-10.344,"(0.0, 0.0, 0.0, 0.0, 0.0, 0.0, 0.0, 0.0, 0.0)",0,0,0,,0.2645,-0.2562,0.6477,"(0.0, 0.0, 0.0, 0.0, 0.0, 0.0, 0.0, 0.0, 0.0)","b'$VNYMR,-051.996,+006.511,+000.675,+00.2645,-00.2562,+00.6477,-00.120,-00.988,-10.344,-00.000977,+00.004351,-00.259031"
1666974629.4230137,0,1666974629,385185480,IMU1_Frame,0,0,0,,0.030020497398985557,0.04852037458388727,-0.44077973162898626,0.8958000732145734,"(0.0, 0.0, 0.0, 0.0, 0.0, 0.0, 0.0, 0.0, 0.0)",0.002908,0.00432,-0.254885,"(0.0, 0.0, 0.0, 0.0, 0.0, 0.0, 0.0, 0.0, 0.0)",0.381,-1.111,-9.618,"(0.0, 0.0, 0.0, 0.0, 0.0, 0.0, 0.0, 0.0, 0.0)",0,0,0,,0.2635,-0.2641,0.6522,"(0.0, 0.0, 0.0, 0.0, 0.0, 0.0, 0.0, 0.0, 0.0)","b'$VNYMR,-052.363,+006.511,+000.635,+00.2635,-00.2641,+00.6522,+00.381,-01.111,-09.618,+00.002908,+00.004320,-00.254885"
1666974629.423065,0,1666974629,406763076,IMU1_Frame,0,0,0,,0.029852982863598203,0.04852607547938423,-0.44357678342888557,0.894423644933204,"(0.0, 0.0, 0.0, 0.0, 0.0, 0.0, 0.0, 0.0, 0.0)",-0.001097,-0.008919,-0.251376,"(0.0, 0.0, 0.0, 0.0, 0.0, 0.0, 0.0, 0.0, 0.0)",0.48,-1.261,-9.605,"(0.0, 0.0, 0.0, 0.0, 0.0, 0.0, 0.0, 0.0, 0.0)",0,0,0,,0.2664,-0.2583,0.6522,"(0.0, 0.0, 0.0, 0.0, 0.0, 0.0, 0.0, 0.0, 0.0)","b'$VNYMR,-052.723,+006.505,+000.597,+00.2664,-00.2583,+00.6522,+00.480,-01.261,-09.605,-00.001097,-00.008919,-00.251376"
1666974629.466266,0,1666974629,432798624,IMU1_Frame,0,0,0,,0.029704440337975202,0.04851433915647499,-0.44635538477964476,0.8930458418237182,"(0.0, 0.0, 0.0, 0.0, 0.0, 0.0, 0.0, 0.0, 0.0)",0.001659,-0.014428,-0.246191,"(0.0, 0.0, 0.0, 0.0, 0.0, 0.0, 0.0, 0.0, 0.0)",-0.04,-1.076,-10.504,"(0.0, 0.0, 0.0, 0.0, 0.0, 0.0, 0.0, 0.0, 0.0)",0,0,0,,0.2645,-0.2542,0.6344,"(0.0, 0.0, 0.0, 0.0, 0.0, 0.0, 0.0, 0.0, 0.0)","b'$VNYMR,-053.081,+006.498,+000.562,+00.2645,-00.2542,+00.6344,-00.040,-01.076,-10.504,+00.001659,-00.014428,-00.246191"
1666974629.466296,0,1666974629,458399772,IMU1_Frame,0,0,0,,0.0296630335115602,0.04848939420990384,-0.4490951247805988,0.8916739605878076,"(0.0, 0.0, 0.0, 0.0, 0.0, 0.0, 0.0, 0.0, 0.0)",0.015263,0.001739,-0.244611,"(0.0, 0.0, 0.0, 0.0, 0.0, 0.0, 0.0, 0.0, 0.0)",-0.049,-0.804,-10.268,"(0.0, 0.0, 0.0, 0.0, 0.0, 0.0, 0.0, 0.0, 0.0)",0,0,0,,0.2655,-0.2612,0.6544,"(0.0, 0.0, 0.0, 0.0, 0.0, 0.0, 0.0, 0.0, 0.0)","b'$VNYMR,-053.434,+006.495,+000.539,+00.2655,-00.2612,+00.6544,-00.049,-00.804,-10.268,+00.015263,+00.001739,-00.244611"
1666974629.5099678,0,1666974629,486218214,IMU1_Frame,0,0,0,,0.029770990730436844,0.04843854681676593,-0.45179027102655206,0.8903105897937882,"(0.0, 0.0, 0.0, 0.0, 0.0, 0.0, 0.0, 0.0, 0.0)",0.026958,0.010357,-0.242743,"(0.0, 0.0, 0.0, 0.0, 0.0, 0.0, 0.0, 0.0, 0.0)",0.197,-0.885,-10.347,"(0.0, 0.0, 0.0, 0.0, 0.0, 0.0, 0.0, 0.0, 0.0)",0,0,0,,0.2646,-0.2532,0.6477,"(0.0, 0.0, 0.0, 0.0, 0.0, 0.0, 0.0, 0.0, 0.0)","b'$VNYMR,-053.781,+006.497,+000.533,+00.2646,-00.2532,+00.6477,+00.197,-00.885,-10.347,+00.026958,+00.010357,-00.242743"
1666974629.510604,0,1666974629,508200883,IMU1_Frame,0,0,0,,0.029905634865542825,0.04842284314605521,-0.4544652356892046,0.8889444475415192,"(0.0, 0.0, 0.0, 0.0, 0.0, 0.0, 0.0, 0.0, 0.0)",0.020031,0.010297,-0.24207,"(0.0, 0.0, 0.0, 0.0, 0.0, 0.0, 0.0, 0.0, 0.0)",0.314,-1.167,-10.147,"(0.0, 0.0, 0.0, 0.0, 0.0, 0.0, 0.0, 0.0, 0.0)",0,0,0,,0.2665,-0.2523,0.6511,"(0.0, 0.0, 0.0, 0.0, 0.0, 0.0, 0.0, 0.0, 0.0)","b'$VNYMR,-054.126,+006.504,+000.528,+00.2665,-00.2523,+00.6511,+00.314,-01.167,-10.147,+00.020031,+00.010297,-00.242070"
1666974629.5541017,0,1666974629,532530546,IMU1_Frame,0,0,0,,0.02995236683541978,0.04850109244016264,-0.45713692788373,0.8875676475165669,"(0.0, 0.0, 0.0, 0.0, 0.0, 0.0, 0.0, 0.0, 0.0)",0.010297,0.015335,-0.244382,"(0.0, 0.0, 0.0, 0.0, 0.0, 0.0, 0.0, 0.0, 0.0)",0.216,-1.253,-10.513,"(0.0, 0.0, 0.0, 0.0, 0.0, 0.0, 0.0, 0.0, 0.0)",0,0,0,,0.2712,-0.2584,0.658,"(0.0, 0.0, 0.0, 0.0, 0.0, 0.0, 0.0, 0.0, 0.0)","b'$VNYMR,-054.472,+006.516,+000.509,+00.2712,-00.2584,+00.6580,+00.216,-01.253,-10.513,+00.010297,+00.015335,-00.244382"
1666974629.568805,0,1666974629,568050861,IMU1_Frame,0,0,0,,0.029908746958444938,0.04868557460024296,-0.45981232391203103,0.8861759466718997,"(0.0, 0.0, 0.0, 0.0, 0.0, 0.0, 0.0, 0.0, 0.0)",0.002374,0.020673,-0.243186,"(0.0, 0.0, 0.0, 0.0, 0.0, 0.0, 0.0, 0.0, 0.0)",0.557,-0.915,-9.499,"(0.0, 0.0, 0.0, 0.0, 0.0, 0.0, 0.0, 0.0, 0.0)",0,0,0,,0.2703,-0.2445,0.6412,"(0.0, 0.0, 0.0, 0.0, 0.0, 0.0, 0.0, 0.0, 0.0)","b'$VNYMR,-054.820,+006.534,+000.475,+00.2703,-00.2445,+00.6412,+00.557,-00.915,-09.499,+00.002374,+00.020673,-00.243186"
1666974629.6101792,0,1666974629,583571910,IMU1_Frame,0,0,0,,0.029799954924152564,0.048876101632161995,-0.46247324611869445,0.8847833554041342,"(0.0, 0.0, 0.0, 0.0, 0.0, 0.0, 0.0, 0.0, 0.0)",-0.001749,0.008988,-0.241378,"(0.0, 0.0, 0.0, 0.0, 0.0, 0.0, 0.0, 0.0, 0.0)",0.582,-1.118,-9.303,"(0.0, 0.0, 0.0, 0.0, 0.0, 0.0, 0.0, 0.0, 0.0)",0,0,0,,0.2712,-0.2584,0.6569,"(0.0, 0.0, 0.0, 0.0, 0.0, 0.0, 0.0, 0.0, 0.0)","b'$VNYMR,-055.167,+006.549,+000.434,+00.2712,-00.2584,+00.6569,+00.582,-01.118,-09.303,-00.001749,+00.008988,-00.241378"
1666974629.610455,0,1666974629,607769966,IMU1_Frame,0,0,0,,0.02970519028889255,0.04909059458155153,-0.46513689070471015,0.8833772626115554,"(0.0, 0.0, 0.0, 0.0, 0.0, 0.0, 0.0, 0.0, 0.0)",-0.000281,0.012063,-0.24105,"(0.0, 0.0, 0.0, 0.0, 0.0, 0.0, 0.0, 0.0, 0.0)",0.456,-0.899,-9.131,"(0.0, 0.0, 0.0, 0.0, 0.0, 0.0, 0.0, 0.0, 0.0)",0,0,0,,0.2731,-0.2564,0.6603,"(0.0, 0.0, 0.0, 0.0, 0.0, 0.0, 0.0, 0.0, 0.0)","b'$VNYMR,-055.515,+006.567,+000.393,+00.2731,-00.2564,+00.6603,+00.456,-00.899,-09.131,-00.000281,+00.012063,-00.241050"
1666974629.654192,0,1666974629,632966756,IMU1_Frame,0,0,0,,0.02963055443834808,0.04926667759910604,-0.4677984430927528,0.8819634013733327,"(0.0, 0.0, 0.0, 0.0, 0.0, 0.0, 0.0, 0.0, 0.0)",0.004676,0.012527,-0.242787,"(0.0, 0.0, 0.0, 0.0, 0.0, 0.0, 0.0, 0.0, 0.0)",0.33,-0.956,-9.097,"(0.0, 0.0, 0.0, 0.0, 0.0, 0.0, 0.0, 0.0, 0.0)",0,0,0,,0.276,-0.2526,0.6581,"(0.0, 0.0, 0.0, 0.0, 0.0, 0.0, 0.0, 0.0, 0.0)","b'$VNYMR,-055.863,+006.582,+000.356,+00.2760,-00.2526,+00.6581,+00.330,-00.956,-09.097,+00.004676,+00.012527,-00.242787"
1666974629.6584477,0,1666974629,657509803,IMU1_Frame,0,0,0,,0.02953622779089677,0.049385752153287873,-0.47045750260344527,0.880544375358941,"(0.0, 0.0, 0.0, 0.0, 0.0, 0.0, 0.0, 0.0, 0.0)",0.003695,0.005143,-0.242281,"(0.0, 0.0, 0.0, 0.0, 0.0, 0.0, 0.0, 0.0, 0.0)",0.675,-1.167,-9.302,"(0.0, 0.0, 0.0, 0.0, 0.0, 0.0, 0.0, 0.0, 0.0)",0,0,0,,0.2752,-0.2346,0.6491,"(0.0, 0.0, 0.0, 0.0, 0.0, 0.0, 0.0, 0.0, 0.0)","b'$VNYMR,-056.211,+006.590,+000.320,+00.2752,-00.2346,+00.6491,+00.675,-01.167,-09.302,+00.003695,+00.005143,-00.242281"
1666974629.7020085,0,1666974629,682853460,IMU1_Frame,0,0,0,,0.02939540664830245,0.04945220669739311,-0.4731284007857855,0.8791131358878814,"(0.0, 0.0, 0.0, 0.0, 0.0, 0.0, 0.0, 0.0, 0.0)",0.001008,-0.000666,-0.242415,"(0.0, 0.0, 0.0, 0.0, 0.0, 0.0, 0.0, 0.0, 0.0)",0.451,-1.043,-9.297,"(0.0, 0.0, 0.0, 0.0, 0.0, 0.0, 0.0, 0.0, 0.0)",0,0,0,,0.2713,-0.2405,0.6379,"(0.0, 0.0, 0.0, 0.0, 0.0, 0.0, 0.0, 0.0, 0.0)","b'$VNYMR,-056.561,+006.590,+000.282,+00.2713,-00.2405,+00.6379,+00.451,-01.043,-09.297,+00.001008,-00.000666,-00.242415"
1666974629.7471464,0,1666974629,706988573,IMU1_Frame,0,0,0,,0.029210045362724483,0.0494354583362493,-0.47580499918851443,0.8776744906035552,"(0.0, 0.0, 0.0, 0.0, 0.0, 0.0, 0.0, 0.0, 0.0)",0.001665,-0.002591,-0.24628,"(0.0, 0.0, 0.0, 0.0, 0.0, 0.0, 0.0, 0.0, 0.0)",0.453,-0.92,-9.404,"(0.0, 0.0, 0.0, 0.0, 0.0, 0.0, 0.0, 0.0, 0.0)",0,0,0,,0.2787,-0.2556,0.6461,"(0.0, 0.0, 0.0, 0.0, 0.0, 0.0, 0.0, 0.0, 0.0)","b'$VNYMR,-056.912,+006.579,+000.244,+00.2787,-00.2556,+00.6461,+00.453,-00.920,-09.404,+00.001665,-00.002591,-00.246280"
1666974629.7474577,0,1666974629,733133316,IMU1_Frame,0,0,0,,0.029073664069232757,0.04934398038082786,-0.478497520721716,0.8762191599827847,"(0.0, 0.0, 0.0, 0.0, 0.0, 0.0, 0.0, 0.0, 0.0)",0.008917,-0.012312,-0.246156,"(0.0, 0.0, 0.0, 0.0, 0.0, 0.0, 0.0, 0.0, 0.0)",0.261,-0.954,-9.302,"(0.0, 0.0, 0.0, 0.0, 0.0, 0.0, 0.0, 0.0, 0.0)",0,0,0,,0.275,-0.2575,0.657,"(0.0, 0.0, 0.0, 0.0, 0.0, 0.0, 0.0, 0.0, 0.0)","b'$VNYMR,-057.265,+006.563,+000.215,+00.2750,-00.2575,+00.6570,+00.261,-00.954,-09.302,+00.008917,-00.012312,-00.246156"
1666974629.79001,0,1666974629,758658647,IMU1_Frame,0,0,0,,0.029024925136289244,0.04917555709562009,-0.4812147786839889,0.8747409074013218,"(0.0, 0.0, 0.0, 0.0, 0.0, 0.0, 0.0, 0.0, 0.0)",0.019994,-0.00965,-0.249188,"(0.0, 0.0, 0.0, 0.0, 0.0, 0.0, 0.0, 0.0, 0.0)",0.337,-0.814,-9.206,"(0.0, 0.0, 0.0, 0.0, 0.0, 0.0, 0.0, 0.0, 0.0)",0,0,0,,0.2741,-0.2555,0.6614,"(0.0, 0.0, 0.0, 0.0, 0.0, 0.0, 0.0, 0.0, 0.0)","b'$VNYMR,-057.621,+006.544,+000.199,+00.2741,-00.2555,+00.6614,+00.337,-00.814,-09.206,+00.019994,-00.009650,-00.249188"
1666974629.7901108,0,1666974629,782935142,IMU1_Frame,0,0,0,,0.029093583796775735,0.04891249409811335,-0.48395829630065884,0.8732385119454626,"(0.0, 0.0, 0.0, 0.0, 0.0, 0.0, 0.0, 0.0, 0.0)",0.030618,-0.021245,-0.250843,"(0.0, 0.0, 0.0, 0.0, 0.0, 0.0, 0.0, 0.0, 0.0)",0.125,-0.8,-9.724,"(0.0, 0.0, 0.0, 0.0, 0.0, 0.0, 0.0, 0.0, 0.0)",0,0,0,,0.2779,-0.2496,0.656,"(0.0, 0.0, 0.0, 0.0, 0.0, 0.0, 0.0, 0.0, 0.0)","b'$VNYMR,-057.980,+006.522,+000.200,+00.2779,-00.2496,+00.6560,+00.125,-00.800,-09.724,+00.030618,-00.021245,-00.250843"
1666974629.8339899,0,1666974629,807433366,IMU1_Frame,0,0,0,,0.029300001638429655,0.04861170396328686,-0.4867105904150041,0.8717173930349513,"(0.0, 0.0, 0.0, 0.0, 0.0, 0.0, 0.0, 0.0, 0.0)",0.043686,-0.011667,-0.250093,"(0.0, 0.0, 0.0, 0.0, 0.0, 0.0, 0.0, 0.0, 0.0)",0.119,-0.696,-9.56,"(0.0, 0.0, 0.0, 0.0, 0.0, 0.0, 0.0, 0.0, 0.0)",0,0,0,,0.2741,-0.2436,0.6513,"(0.0, 0.0, 0.0, 0.0, 0.0, 0.0, 0.0, 0.0, 0.0)","b'$VNYMR,-058.340,+006.504,+000.217,+00.2741,-00.2436,+00.6513,+00.119,-00.696,-09.560,+00.043686,-00.011667,-00.250093"
1666974629.8350945,0,1666974629,833415746,IMU1_Frame,0,0,0,,0.02955601646176182,0.04831126802619023,-0.48946706270148305,0.8701807041086328,"(0.0, 0.0, 0.0, 0.0, 0.0, 0.0, 0.0, 0.0, 0.0)",0.044423,-0.009463,-0.248797,"(0.0, 0.0, 0.0, 0.0, 0.0, 0.0, 0.0, 0.0, 0.0)",0.209,-0.802,-9.817,"(0.0, 0.0, 0.0, 0.0, 0.0, 0.0, 0.0, 0.0, 0.0)",0,0,0,,0.2741,-0.2406,0.6413,"(0.0, 0.0, 0.0, 0.0, 0.0, 0.0, 0.0, 0.0, 0.0)","b'$VNYMR,-058.701,+006.489,+000.239,+00.2741,-00.2406,+00.6413,+00.209,-00.802,-09.817,+00.044423,-00.009463,-00.248797"
1666974629.8779652,0,1666974629,857548475,IMU1_Frame,0,0,0,,0.029794414517164608,0.04806882347090889,-0.4922229676531571,0.8686300888113542,"(0.0, 0.0, 0.0, 0.0, 0.0, 0.0, 0.0, 0.0, 0.0)",0.03892,-0.007893,-0.251689,"(0.0, 0.0, 0.0, 0.0, 0.0, 0.0, 0.0, 0.0, 0.0)",0.095,-0.852,-10.695,"(0.0, 0.0, 0.0, 0.0, 0.0, 0.0, 0.0, 0.0, 0.0)",0,0,0,,0.276,-0.2446,0.6559,"(0.0, 0.0, 0.0, 0.0, 0.0, 0.0, 0.0, 0.0, 0.0)","b'$VNYMR,-059.063,+006.479,+000.256,+00.2760,-00.2446,+00.6559,+00.095,-00.852,-10.695,+00.038920,-00.007893,-00.251689"
1666974629.9237623,0,1666974629,883523941,IMU1_Frame,0,0,0,,0.029992025143962132,0.0479182504365179,-0.49493831145423967,0.8670873010012852,"(0.0, 0.0, 0.0, 0.0, 0.0, 0.0, 0.0, 0.0, 0.0)",0.027798,-0.000578,-0.247533,"(0.0, 0.0, 0.0, 0.0, 0.0, 0.0, 0.0, 0.0, 0.0)",-0.001,-0.875,-10.481,"(0.0, 0.0, 0.0, 0.0, 0.0, 0.0, 0.0, 0.0, 0.0)",0,0,0,,0.2779,-0.2506,0.6637,"(0.0, 0.0, 0.0, 0.0, 0.0, 0.0, 0.0, 0.0, 0.0)","b'$VNYMR,-059.421,+006.476,+000.264,+00.2779,-00.2506,+00.6637,-00.001,-00.875,-10.481,+00.027798,-00.000578,-00.247533"
1666974629.9238727,0,1666974629,908047437,IMU1_Frame,0,0,0,,0.030099224714331477,0.047878955872465226,-0.4975958645515481,0.8655633990860265,"(0.0, 0.0, 0.0, 0.0, 0.0, 0.0, 0.0, 0.0, 0.0)",0.016267,0.003182,-0.24399,"(0.0, 0.0, 0.0, 0.0, 0.0, 0.0, 0.0, 0.0, 0.0)",0.294,-1.205,-10.293,"(0.0, 0.0, 0.0, 0.0, 0.0, 0.0, 0.0, 0.0, 0.0)",0,0,0,,0.2724,-0.2415,0.6656,"(0.0, 0.0, 0.0, 0.0, 0.0, 0.0, 0.0, 0.0, 0.0)","b'$VNYMR,-059.773,+006.479,+000.257,+00.2724,-00.2415,+00.6656,+00.294,-01.205,-10.293,+00.016267,+00.003182,-00.243990"
1666974629.9663284,0,1666974629,932685613,IMU1_Frame,0,0,0,,0.030110718291920392,0.04790506020358021,-0.5002053575998403,0.8640561614150158,"(0.0, 0.0, 0.0, 0.0, 0.0, 0.0, 0.0, 0.0, 0.0)",0.00907,0.003546,-0.240543,"(0.0, 0.0, 0.0, 0.0, 0.0, 0.0, 0.0, 0.0, 0.0)",0.25,-0.991,-10.325,"(0.0, 0.0, 0.0, 0.0, 0.0, 0.0, 0.0, 0.0, 0.0)",0,0,0,,0.2743,-0.2296,0.649,"(0.0, 0.0, 0.0, 0.0, 0.0, 0.0, 0.0, 0.0, 0.0)","b'$VNYMR,-060.120,+006.483,+000.237,+00.2743,-00.2296,+00.6490,+00.250,-00.991,-10.325,+00.009070,+00.003546,-00.240543"
1666974629.9664485,0,1666974629,958353042,IMU1_Frame,0,0,0,,0.030081674413079636,0.04793533895414901,-0.5027714185422529,0.8625648942780287,"(0.0, 0.0, 0.0, 0.0, 0.0, 0.0, 0.0, 0.0, 0.0)",0.00847,0.000814,-0.236308,"(0.0, 0.0, 0.0, 0.0, 0.0, 0.0, 0.0, 0.0, 0.0)",0.262,-1.028,-10.022,"(0.0, 0.0, 0.0, 0.0, 0.0, 0.0, 0.0, 0.0, 0.0)",0,0,0,,0.2743,-0.2296,0.6479,"(0.0, 0.0, 0.0, 0.0, 0.0, 0.0, 0.0, 0.0, 0.0)","b'$VNYMR,-060.462,+006.485,+000.213,+00.2743,-00.2296,+00.6479,+00.262,-01.028,-10.022,+00.008470,+00.000814,-00.236308"
1666974630.0101151,0,1666974629,983388423,IMU1_Frame,0,0,0,,0.0300514896850756,0.04791672078750769,-0.5052978749013087,0.8610893992245527,"(0.0, 0.0, 0.0, 0.0, 0.0, 0.0, 0.0, 0.0, 0.0)",0.013926,-0.000875,-0.233091,"(0.0, 0.0, 0.0, 0.0, 0.0, 0.0, 0.0, 0.0, 0.0)",0.15,-1.09,-9.831,"(0.0, 0.0, 0.0, 0.0, 0.0, 0.0, 0.0, 0.0, 0.0)",0,0,0,,0.2771,-0.2387,0.6625,"(0.0, 0.0, 0.0, 0.0, 0.0, 0.0, 0.0, 0.0, 0.0)","b'$VNYMR,-060.799,+006.482,+000.192,+00.2771,-00.2387,+00.6625,+00.150,-01.090,-09.831,+00.013926,-00.000875,-00.233091"
1666974630.0103145,0,1666974630,8544445,IMU1_Frame,0,0,0,,0.030062076564099392,0.047834280495764527,-0.5077942845186579,0.8596238234089905,"(0.0, 0.0, 0.0, 0.0, 0.0, 0.0, 0.0, 0.0, 0.0)",0.019346,-0.004756,-0.231849,"(0.0, 0.0, 0.0, 0.0, 0.0, 0.0, 0.0, 0.0, 0.0)",0.154,-1.184,-9.558,"(0.0, 0.0, 0.0, 0.0, 0.0, 0.0, 0.0, 0.0, 0.0)",0,0,0,,0.2771,-0.2307,0.6569,"(0.0, 0.0, 0.0, 0.0, 0.0, 0.0, 0.0, 0.0, 0.0)","b'$VNYMR,-061.132,+006.475,+000.179,+00.2771,-00.2307,+00.6569,+00.154,-01.184,-09.558,+00.019346,-00.004756,-00.231849"
1666974630.0542564,0,1666974630,40571689,IMU1_Frame,0,0,0,,0.030085791651282837,0.0476733000688772,-0.5102831390562406,0.8581568735354672,"(0.0, 0.0, 0.0, 0.0, 0.0, 0.0, 0.0, 0.0, 0.0)",0.022204,-0.006661,-0.232611,"(0.0, 0.0, 0.0, 0.0, 0.0, 0.0, 0.0, 0.0, 0.0)",0.063,-1.18,-10.029,"(0.0, 0.0, 0.0, 0.0, 0.0, 0.0, 0.0, 0.0, 0.0)",0,0,0,,0.2781,-0.2317,0.6614,"(0.0, 0.0, 0.0, 0.0, 0.0, 0.0, 0.0, 0.0, 0.0)","b'$VNYMR,-061.464,+006.461,+000.172,+00.2781,-00.2317,+00.6614,+00.063,-01.180,-10.029,+00.022204,-00.006661,-00.232611"
1666974630.0586953,0,1666974630,57785511,IMU1_Frame,0,0,0,,0.03017134810073814,0.04749542414199117,-0.512792606507326,0.8566665729154951,"(0.0, 0.0, 0.0, 0.0, 0.0, 0.0, 0.0, 0.0, 0.0)",0.025532,-0.005515,-0.236714,"(0.0, 0.0, 0.0, 0.0, 0.0, 0.0, 0.0, 0.0, 0.0)",0.093,-1.136,-9.722,"(0.0, 0.0, 0.0, 0.0, 0.0, 0.0, 0.0, 0.0, 0.0)",0,0,0,,0.28,-0.2298,0.6625,"(0.0, 0.0, 0.0, 0.0, 0.0, 0.0, 0.0, 0.0, 0.0)","b'$VNYMR,-061.799,+006.449,+000.172,+00.2800,-00.2298,+00.6625,+00.093,-01.136,-09.722,+00.025532,-00.005515,-00.236714"
1666974630.1028347,0,1666974630,83673000,IMU1_Frame,0,0,0,,0.030320119257389533,0.04731953499431766,-0.5153216153836593,0.8551521412558791,"(0.0, 0.0, 0.0, 0.0, 0.0, 0.0, 0.0, 0.0, 0.0)",0.032009,-0.00432,-0.23723,"(0.0, 0.0, 0.0, 0.0, 0.0, 0.0, 0.0, 0.0, 0.0)",0.183,-1.264,-9.364,"(0.0, 0.0, 0.0, 0.0, 0.0, 0.0, 0.0, 0.0, 0.0)",0,0,0,,0.2744,-0.2167,0.6422,"(0.0, 0.0, 0.0, 0.0, 0.0, 0.0, 0.0, 0.0, 0.0)","b'$VNYMR,-062.137,+006.441,+000.178,+00.2744,-00.2167,+00.6422,+00.183,-01.264,-09.364,+00.032009,-00.004320,-00.237230"
1666974630.14582,0,1666974630,108206510,IMU1_Frame,0,0,0,,0.030547837339255913,0.04713549679037511,-0.5178857113407909,0.8536038100695557,"(0.0, 0.0, 0.0, 0.0, 0.0, 0.0, 0.0, 0.0, 0.0)",0.037184,-0.000646,-0.24028,"(0.0, 0.0, 0.0, 0.0, 0.0, 0.0, 0.0, 0.0, 0.0)",0.214,-1.034,-9.984,"(0.0, 0.0, 0.0, 0.0, 0.0, 0.0, 0.0, 0.0, 0.0)",0,0,0,,0.2818,-0.2378,0.6594,"(0.0, 0.0, 0.0, 0.0, 0.0, 0.0, 0.0, 0.0, 0.0)","b'$VNYMR,-062.480,+006.437,+000.192,+00.2818,-00.2378,+00.6594,+00.214,-01.034,-09.984,+00.037184,-00.000646,-00.240280"
1666974630.1458604,0,1666974630,133541107,IMU1_Frame,0,0,0,,0.030815595413787224,0.04694588050761076,-0.5204834719140081,0.8520231445489018,"(0.0, 0.0, 0.0, 0.0, 0.0, 0.0, 0.0, 0.0, 0.0)",0.038604,0.002,-0.243986,"(0.0, 0.0, 0.0, 0.0, 0.0, 0.0, 0.0, 0.0, 0.0)",0.132,-1.313,-9.998,"(0.0, 0.0, 0.0, 0.0, 0.0, 0.0, 0.0, 0.0, 0.0)",0,0,0,,0.2818,-0.2378,0.6616,"(0.0, 0.0, 0.0, 0.0, 0.0, 0.0, 0.0, 0.0, 0.0)","b'$VNYMR,-062.828,+006.435,+000.210,+00.2818,-00.2378,+00.6616,+00.132,-01.313,-09.998,+00.038604,+00.002000,-00.243986"
1666974630.1898248,0,1666974630,157452821,IMU1_Frame,0,0,0,,0.03100370499705741,0.04680338990459299,-0.5231238491092686,0.8504055805690584,"(0.0, 0.0, 0.0, 0.0, 0.0, 0.0, 0.0, 0.0, 0.0)",0.027184,-0.002411,-0.249895,"(0.0, 0.0, 0.0, 0.0, 0.0, 0.0, 0.0, 0.0, 0.0)",0.058,-1.517,-9.971,"(0.0, 0.0, 0.0, 0.0, 0.0, 0.0, 0.0, 0.0, 0.0)",0,0,0,,0.2819,-0.2308,0.6593,"(0.0, 0.0, 0.0, 0.0, 0.0, 0.0, 0.0, 0.0, 0.0)","b'$VNYMR,-063.183,+006.433,+000.217,+00.2819,-00.2308,+00.6593,+00.058,-01.517,-09.971,+00.027184,-00.002411,-00.249895"
1666974630.1898725,0,1666974630,183530330,IMU1_Frame,0,0,0,,0.031038943631656806,0.04675436735626371,-0.5258098906941581,0.8487488273685825,"(0.0, 0.0, 0.0, 0.0, 0.0, 0.0, 0.0, 0.0, 0.0)",0.012488,0.00037,-0.253543,"(0.0, 0.0, 0.0, 0.0, 0.0, 0.0, 0.0, 0.0, 0.0)",0.136,-1.25,-9.76,"(0.0, 0.0, 0.0, 0.0, 0.0, 0.0, 0.0, 0.0, 0.0)",0,0,0,,0.2848,-0.22,0.6549,"(0.0, 0.0, 0.0, 0.0, 0.0, 0.0, 0.0, 0.0, 0.0)","b'$VNYMR,-063.546,+006.431,+000.203,+00.2848,-00.2200,+00.6549,+00.136,-01.250,-09.760,+00.012488,+00.000370,-00.253543"
1666974630.2340503,0,1666974630,208632469,IMU1_Frame,0,0,0,,0.030958553600444534,0.04679823848794018,-0.5284980347116867,0.8470781074607461,"(0.0, 0.0, 0.0, 0.0, 0.0, 0.0, 0.0, 0.0, 0.0)",0.002227,0.001409,-0.256413,"(0.0, 0.0, 0.0, 0.0, 0.0, 0.0, 0.0, 0.0, 0.0)",0.262,-1.267,-9.338,"(0.0, 0.0, 0.0, 0.0, 0.0, 0.0, 0.0, 0.0, 0.0)",0,0,0,,0.2818,-0.2279,0.6427,"(0.0, 0.0, 0.0, 0.0, 0.0, 0.0, 0.0, 0.0, 0.0)","b'$VNYMR,-063.911,+006.431,+000.172,+00.2818,-00.2279,+00.6427,+00.262,-01.267,-09.338,+00.002227,+00.001409,-00.256413"
1666974630.2351892,0,1666974630,233220338,IMU1_Frame,0,0,0,,0.030765539660592776,0.046873033590342346,-0.5311986545618177,0.8453900813725849,"(0.0, 0.0, 0.0, 0.0, 0.0, 0.0, 0.0, 0.0, 0.0)",-0.005226,-0.001237,-0.256756,"(0.0, 0.0, 0.0, 0.0, 0.0, 0.0, 0.0, 0.0, 0.0)",0.047,-1.062,-8.797,"(0.0, 0.0, 0.0, 0.0, 0.0, 0.0, 0.0, 0.0, 0.0)",0,0,0,,0.2809,-0.2239,0.6437,"(0.0, 0.0, 0.0, 0.0, 0.0, 0.0, 0.0, 0.0, 0.0)","b'$VNYMR,-064.279,+006.427,+000.128,+00.2809,-00.2239,+00.6437,+00.047,-01.062,-08.797,-00.005226,-00.001237,-00.256756"
1666974630.2789476,0,1666974630,263949632,IMU1_Frame,0,0,0,,0.03051003465843655,0.046917437194130364,-0.5338718920051333,0.8437112626954408,"(0.0, 0.0, 0.0, 0.0, 0.0, 0.0, 0.0, 0.0, 0.0)",-0.002542,-0.003522,-0.256474,"(0.0, 0.0, 0.0, 0.0, 0.0, 0.0, 0.0, 0.0, 0.0)",0.296,-1.036,-9.721,"(0.0, 0.0, 0.0, 0.0, 0.0, 0.0, 0.0, 0.0, 0.0)",0,0,0,,0.2828,-0.2358,0.6583,"(0.0, 0.0, 0.0, 0.0, 0.0, 0.0, 0.0, 0.0, 0.0)","b'$VNYMR,-064.644,+006.416,+000.080,+00.2828,-00.2358,+00.6583,+00.296,-01.036,-09.721,-00.002542,-00.003522,-00.256474"
1666974630.3224063,0,1666974630,290024042,IMU1_Frame,0,0,0,,0.03031438614851106,0.0468641894645073,-0.5365315659216753,0.8420324604835069,"(0.0, 0.0, 0.0, 0.0, 0.0, 0.0, 0.0, 0.0, 0.0)",0.000478,-0.015965,-0.252302,"(0.0, 0.0, 0.0, 0.0, 0.0, 0.0, 0.0, 0.0, 0.0)",-0.029,-1.066,-9.451,"(0.0, 0.0, 0.0, 0.0, 0.0, 0.0, 0.0, 0.0, 0.0)",0,0,0,,0.2818,-0.2348,0.6582,"(0.0, 0.0, 0.0, 0.0, 0.0, 0.0, 0.0, 0.0, 0.0)","b'$VNYMR,-065.007,+006.399,+000.044,+00.2818,-00.2348,+00.6582,-00.029,-01.066,-09.451,+00.000478,-00.015965,-00.252302"
1666974630.3224726,0,1666974630,306849241,IMU1_Frame,0,0,0,,0.030202586086331164,0.04673813071749553,-0.5391551361254187,0.8403660453161547,"(0.0, 0.0, 0.0, 0.0, 0.0, 0.0, 0.0, 0.0, 0.0)",0.008472,-0.018793,-0.247403,"(0.0, 0.0, 0.0, 0.0, 0.0, 0.0, 0.0, 0.0, 0.0)",-0.054,-1.176,-9.394,"(0.0, 0.0, 0.0, 0.0, 0.0, 0.0, 0.0, 0.0, 0.0)",0,0,0,,0.2819,-0.2318,0.6604,"(0.0, 0.0, 0.0, 0.0, 0.0, 0.0, 0.0, 0.0, 0.0)","b'$VNYMR,-065.365,+006.380,+000.021,+00.2819,-00.2318,+00.6604,-00.054,-01.176,-09.394,+00.008472,-00.018793,-00.247403"
1666974630.3660278,0,1666974630,333042860,IMU1_Frame,0,0,0,,0.03019189601192201,0.0465787128292031,-0.541770322936127,0.8386917133917948,"(0.0, 0.0, 0.0, 0.0, 0.0, 0.0, 0.0, 0.0, 0.0)",0.021404,-0.015733,-0.246175,"(0.0, 0.0, 0.0, 0.0, 0.0, 0.0, 0.0, 0.0, 0.0)",0.121,-1.102,-9.72,"(0.0, 0.0, 0.0, 0.0, 0.0, 0.0, 0.0, 0.0, 0.0)",0,0,0,,0.282,-0.214,0.6458,"(0.0, 0.0, 0.0, 0.0, 0.0, 0.0, 0.0, 0.0, 0.0)","b'$VNYMR,-065.722,+006.364,+000.010,+00.2820,-00.2140,+00.6458,+00.121,-01.102,-09.720,+00.021404,-00.015733,-00.246175"
1666974630.366093,0,1666974630,359462976,IMU1_Frame,0,0,0,,0.03025753670309311,0.046411291465420716,-0.5443751998461986,0.8370102241248814,"(0.0, 0.0, 0.0, 0.0, 0.0, 0.0, 0.0, 0.0, 0.0)",0.025153,-0.01073,-0.247142,"(0.0, 0.0, 0.0, 0.0, 0.0, 0.0, 0.0, 0.0, 0.0)",0.232,-0.978,-9.402,"(0.0, 0.0, 0.0, 0.0, 0.0, 0.0, 0.0, 0.0, 0.0)",0,0,0,,0.281,-0.2219,0.6503,"(0.0, 0.0, 0.0, 0.0, 0.0, 0.0, 0.0, 0.0, 0.0)","b'$VNYMR,-066.078,+006.352,+000.007,+00.2810,-00.2219,+00.6503,+00.232,-00.978,-09.402,+00.025153,-00.010730,-00.247142"
1666974630.4099514,0,1666974630,385480880,IMU1_Frame,0,0,0,,0.03037982233749102,0.04626882159300565,-0.546967596631406,0.8353219204464831,"(0.0, 0.0, 0.0, 0.0, 0.0, 0.0, 0.0, 0.0, 0.0)",0.025954,-0.006369,-0.246831,"(0.0, 0.0, 0.0, 0.0, 0.0, 0.0, 0.0, 0.0, 0.0)",0.52,-1.032,-9.73,"(0.0, 0.0, 0.0, 0.0, 0.0, 0.0, 0.0, 0.0, 0.0)",0,0,0,,0.283,-0.215,0.6581,"(0.0, 0.0, 0.0, 0.0, 0.0, 0.0, 0.0, 0.0, 0.0)","b'$VNYMR,-066.433,+006.346,+000.008,+00.2830,-00.2150,+00.6581,+00.520,-01.032,-09.730,+00.025954,-00.006369,-00.246831"
1666974630.4100204,0,1666974630,407292842,IMU1_Frame,0,0,0,,0.0304973631695767,0.0461496486216472,-0.5495679689515969,0.8336157197859324,"(0.0, 0.0, 0.0, 0.0, 0.0, 0.0, 0.0, 0.0, 0.0)",0.022044,-0.013199,-0.248343,"(0.0, 0.0, 0.0, 0.0, 0.0, 0.0, 0.0, 0.0, 0.0)",0.509,-1.137,-9.687,"(0.0, 0.0, 0.0, 0.0, 0.0, 0.0, 0.0, 0.0, 0.0)",0,0,0,,0.2876,-0.2231,0.6595,"(0.0, 0.0, 0.0, 0.0, 0.0, 0.0, 0.0, 0.0, 0.0)","b'$VNYMR,-066.790,+006.342,+000.007,+00.2876,-00.2231,+00.6595,+00.509,-01.137,-09.687,+00.022044,-00.013199,-00.248343"
1666974630.4539826,0,1666974630,432194232,IMU1_Frame,0,0,0,,0.03056873179320895,0.04613374731356713,-0.5521639866346718,0.8318967254768279,"(0.0, 0.0, 0.0, 0.0, 0.0, 0.0, 0.0, 0.0, 0.0)",0.012761,-0.004305,-0.251965,"(0.0, 0.0, 0.0, 0.0, 0.0, 0.0, 0.0, 0.0, 0.0)",0.271,-1.415,-10.272,"(0.0, 0.0, 0.0, 0.0, 0.0, 0.0, 0.0, 0.0, 0.0)",0,0,0,,0.286,-0.2021,0.6625,"(0.0, 0.0, 0.0, 0.0, 0.0, 0.0, 0.0, 0.0, 0.0)","b'$VNYMR,-067.148,+006.345,-000.005,+00.2860,-00.2021,+00.6625,+00.271,-01.415,-10.272,+00.012761,-00.004305,-00.251965"
1666974630.4582794,0,1666974630,457718133,IMU1_Frame,0,0,0,,0.030497387303529962,0.046181925011147366,-0.5547844000659187,0.8301514371567528,"(0.0, 0.0, 0.0, 0.0, 0.0, 0.0, 0.0, 0.0, 0.0)",0.003028,0.000561,-0.256838,"(0.0, 0.0, 0.0, 0.0, 0.0, 0.0, 0.0, 0.0, 0.0)",-0.026,-1.31,-10.67,"(0.0, 0.0, 0.0, 0.0, 0.0, 0.0, 0.0, 0.0, 0.0)",0,0,0,,0.2868,-0.2071,0.646,"(0.0, 0.0, 0.0, 0.0, 0.0, 0.0, 0.0, 0.0, 0.0)","b'$VNYMR,-067.511,+006.345,-000.035,+00.2868,-00.2071,+00.6460,-00.026,-01.310,-10.670,+00.003028,+00.000561,-00.256838"
1666974630.502081,0,1666974630,483758926,IMU1_Frame,0,0,0,,0.030344288731130837,0.04627596653473134,-0.5574312381787345,0.8283768307752222,"(0.0, 0.0, 0.0, 0.0, 0.0, 0.0, 0.0, 0.0, 0.0)",-0.001965,-0.004661,-0.257905,"(0.0, 0.0, 0.0, 0.0, 0.0, 0.0, 0.0, 0.0, 0.0)",-0.029,-1.257,-10.262,"(0.0, 0.0, 0.0, 0.0, 0.0, 0.0, 0.0, 0.0, 0.0)",0,0,0,,0.2877,-0.2181,0.6628,"(0.0, 0.0, 0.0, 0.0, 0.0, 0.0, 0.0, 0.0, 0.0)","b'$VNYMR,-067.879,+006.344,-000.076,+00.2877,-00.2181,+00.6628,-00.029,-01.257,-10.262,-00.001965,-00.004661,-00.257905"
1666974630.5461972,0,1666974630,507943630,IMU1_Frame,0,0,0,,0.030209429506723492,0.04631764347571043,-0.5600898942172493,0.8265841618779335,"(0.0, 0.0, 0.0, 0.0, 0.0, 0.0, 0.0, 0.0, 0.0)",0.005845,-0.002366,-0.258741,"(0.0, 0.0, 0.0, 0.0, 0.0, 0.0, 0.0, 0.0, 0.0)",0.139,-1.294,-10.037,"(0.0, 0.0, 0.0, 0.0, 0.0, 0.0, 0.0, 0.0, 0.0)",0,0,0,,0.2897,-0.2112,0.6628,"(0.0, 0.0, 0.0, 0.0, 0.0, 0.0, 0.0, 0.0, 0.0)","b'$VNYMR,-068.249,+006.339,-000.112,+00.2897,-00.2112,+00.6628,+00.139,-01.294,-10.037,+00.005845,-00.002366,-00.258741"
1666974630.5462859,0,1666974630,533424854,IMU1_Frame,0,0,0,,0.0301408039537001,0.0462842690535547,-0.56276963248339,0.8247664148895206,"(0.0, 0.0, 0.0, 0.0, 0.0, 0.0, 0.0, 0.0, 0.0)",0.014834,0.00059,-0.263083,"(0.0, 0.0, 0.0, 0.0, 0.0, 0.0, 0.0, 0.0, 0.0)",0.151,-1.154,-9.945,"(0.0, 0.0, 0.0, 0.0, 0.0, 0.0, 0.0, 0.0, 0.0)",0,0,0,,0.2896,-0.2122,0.655,"(0.0, 0.0, 0.0, 0.0, 0.0, 0.0, 0.0, 0.0, 0.0)","b'$VNYMR,-068.622,+006.331,-000.137,+00.2896,-00.2122,+00.6550,+00.151,-01.154,-09.945,+00.014834,+00.000590,-00.263083"
1666974630.5898824,0,1666974630,566576480,IMU1_Frame,0,0,0,,0.030148907649535418,0.04611464316481746,-0.5654737161104817,0.8229240301762512,"(0.0, 0.0, 0.0, 0.0, 0.0, 0.0, 0.0, 0.0, 0.0)",0.027011,-0.002569,-0.263679,"(0.0, 0.0, 0.0, 0.0, 0.0, 0.0, 0.0, 0.0, 0.0)",0.518,-1.09,-9.746,"(0.0, 0.0, 0.0, 0.0, 0.0, 0.0, 0.0, 0.0, 0.0)",0,0,0,,0.2896,-0.2132,0.655,"(0.0, 0.0, 0.0, 0.0, 0.0, 0.0, 0.0, 0.0, 0.0)","b'$VNYMR,-068.998,+006.315,-000.146,+00.2896,-00.2132,+00.6550,+00.518,-01.090,-09.746,+00.027011,-00.002569,-00.263679"
1666974630.5899448,0,1666974630,583351135,IMU1_Frame,0,0,0,,0.030211443800740954,0.045854308449062325,-0.5681990836276646,0.8210569118062492,"(0.0, 0.0, 0.0, 0.0, 0.0, 0.0, 0.0, 0.0, 0.0)",0.033753,-0.011559,-0.266873,"(0.0, 0.0, 0.0, 0.0, 0.0, 0.0, 0.0, 0.0, 0.0)",0.49,-1.092,-9.365,"(0.0, 0.0, 0.0, 0.0, 0.0, 0.0, 0.0, 0.0, 0.0)",0,0,0,,0.2877,-0.2072,0.6438,"(0.0, 0.0, 0.0, 0.0, 0.0, 0.0, 0.0, 0.0, 0.0)","b'$VNYMR,-069.377,+006.294,-000.144,+00.2877,-00.2072,+00.6438,+00.490,-01.092,-09.365,+00.033753,-00.011559,-00.266873"
1666974630.634047,0,1666974630,608392238,IMU1_Frame,0,0,0,,0.030304285458233722,0.045529539028276125,-0.5709507655886032,0.8191605060258498,"(0.0, 0.0, 0.0, 0.0, 0.0, 0.0, 0.0, 0.0, 0.0)",0.035226,-0.022816,-0.265898,"(0.0, 0.0, 0.0, 0.0, 0.0, 0.0, 0.0, 0.0, 0.0)",0.114,-1.155,-9.742,"(0.0, 0.0, 0.0, 0.0, 0.0, 0.0, 0.0, 0.0, 0.0)",0,0,0,,0.2905,-0.2182,0.6574,"(0.0, 0.0, 0.0, 0.0, 0.0, 0.0, 0.0, 0.0, 0.0)","b'$VNYMR,-069.760,+006.269,-000.135,+00.2905,-00.2182,+00.6574,+00.114,-01.155,-09.742,+00.035226,-00.022816,-00.265898"
1666974630.634628,0,1666974630,633568763,IMU1_Frame,0,0,0,,0.030429436271311883,0.04523398248220295,-0.573730707616626,0.8172276374271341,"(0.0, 0.0, 0.0, 0.0, 0.0, 0.0, 0.0, 0.0, 0.0)",0.033061,-0.011306,-0.270875,"(0.0, 0.0, 0.0, 0.0, 0.0, 0.0, 0.0, 0.0, 0.0)",-0.129,-1.251,-10.295,"(0.0, 0.0, 0.0, 0.0, 0.0, 0.0, 0.0, 0.0, 0.0)",0,0,0,,0.2907,-0.1973,0.656,"(0.0, 0.0, 0.0, 0.0, 0.0, 0.0, 0.0, 0.0, 0.0)","b'$VNYMR,-070.148,+006.249,-000.125,+00.2907,-00.1973,+00.6560,-00.129,-01.251,-10.295,+00.033061,-00.011306,-00.270875"
1666974630.6780522,0,1666974630,658704757,IMU1_Frame,0,0,0,,0.030506907827685736,0.04506673026926579,-0.5765177642989954,0.8152702532567458,"(0.0, 0.0, 0.0, 0.0, 0.0, 0.0, 0.0, 0.0, 0.0)",0.022456,0.002464,-0.273454,"(0.0, 0.0, 0.0, 0.0, 0.0, 0.0, 0.0, 0.0, 0.0)",0.142,-1.258,-9.772,"(0.0, 0.0, 0.0, 0.0, 0.0, 0.0, 0.0, 0.0, 0.0)",0,0,0,,0.2915,-0.2122,0.6596,"(0.0, 0.0, 0.0, 0.0, 0.0, 0.0, 0.0, 0.0, 0.0)","b'$VNYMR,-070.539,+006.238,-000.128,+00.2915,-00.2122,+00.6596,+00.142,-01.258,-09.772,+00.022456,+00.002464,-00.273454"
1666974630.721968,0,1666974630,683491945,IMU1_Frame,0,0,0,,0.030443796836296833,0.045031186061530296,-0.5793099491249969,0.8132929056378616,"(0.0, 0.0, 0.0, 0.0, 0.0, 0.0, 0.0, 0.0, 0.0)",0.008,-0.006411,-0.274916,"(0.0, 0.0, 0.0, 0.0, 0.0, 0.0, 0.0, 0.0, 0.0)",0.386,-1.592,-9.427,"(0.0, 0.0, 0.0, 0.0, 0.0, 0.0, 0.0, 0.0, 0.0)",0,0,0,,0.2907,-0.1973,0.656,"(0.0, 0.0, 0.0, 0.0, 0.0, 0.0, 0.0, 0.0, 0.0)","b'$VNYMR,-070.933,+006.230,-000.153,+00.2907,-00.1973,+00.6560,+00.386,-01.592,-09.427,+00.008000,-00.006411,-00.274916"
1666974630.7219877,0,1666974630,709545135,IMU1_Frame,0,0,0,,0.030369594097140712,0.045069029350694435,-0.5821054236627229,0.8112951041946469,"(0.0, 0.0, 0.0, 0.0, 0.0, 0.0, 0.0, 0.0, 0.0)",0.008182,0.003365,-0.275847,"(0.0, 0.0, 0.0, 0.0, 0.0, 0.0, 0.0, 0.0, 0.0)",0.175,-1.242,-9.871,"(0.0, 0.0, 0.0, 0.0, 0.0, 0.0, 0.0, 0.0, 0.0)",0,0,0,,0.2889,-0.1784,0.6336,"(0.0, 0.0, 0.0, 0.0, 0.0, 0.0, 0.0, 0.0, 0.0)","b'$VNYMR,-071.329,+006.228,-000.184,+00.2889,-00.1784,+00.6336,+00.175,-01.242,-09.871,+00.008182,+00.003365,-00.275847"
1666974630.7659507,0,1666974630,733997821,IMU1_Frame,0,0,0,,0.030388232483258833,0.04507348698649854,-0.584883305241386,0.8092938003885444,"(0.0, 0.0, 0.0, 0.0, 0.0, 0.0, 0.0, 0.0, 0.0)",0.021172,0.006851,-0.275245,"(0.0, 0.0, 0.0, 0.0, 0.0, 0.0, 0.0, 0.0, 0.0)",0.678,-1.111,-9.025,"(0.0, 0.0, 0.0, 0.0, 0.0, 0.0, 0.0, 0.0, 0.0)",0,0,0,,0.2916,-0.2082,0.6595,"(0.0, 0.0, 0.0, 0.0, 0.0, 0.0, 0.0, 0.0, 0.0)","b'$VNYMR,-071.723,+006.229,-000.204,+00.2916,-00.2082,+00.6595,+00.678,-01.111,-09.025,+00.021172,+00.006851,-00.275245"
1666974630.765984,0,1666974630,757690668,IMU1_Frame,0,0,0,,0.030474550766849535,0.04492152514173992,-0.5876427484512132,0.8072975650447627,"(0.0, 0.0, 0.0, 0.0, 0.0, 0.0, 0.0, 0.0, 0.0)",0.029686,-0.010915,-0.271461,"(0.0, 0.0, 0.0, 0.0, 0.0, 0.0, 0.0, 0.0, 0.0)",0.773,-0.919,-8.909,"(0.0, 0.0, 0.0, 0.0, 0.0, 0.0, 0.0, 0.0, 0.0)",0,0,0,,0.2925,-0.2063,0.6584,"(0.0, 0.0, 0.0, 0.0, 0.0, 0.0, 0.0, 0.0, 0.0)","b'$VNYMR,-072.114,+006.220,-000.207,+00.2925,-00.2063,+00.6584,+00.773,-00.919,-08.909,+00.029686,-00.010915,-00.271461"
1666974630.8099775,0,1666974630,782698154,IMU1_Frame,0,0,0,,0.03069386680872061,0.04458501736063707,-0.5903934016421689,0.8052985123944219,"(0.0, 0.0, 0.0, 0.0, 0.0, 0.0, 0.0, 0.0, 0.0)",0.046018,-0.018226,-0.27008,"(0.0, 0.0, 0.0, 0.0, 0.0, 0.0, 0.0, 0.0, 0.0)",0.559,-1.031,-9.596,"(0.0, 0.0, 0.0, 0.0, 0.0, 0.0, 0.0, 0.0, 0.0)",0,0,0,,0.2889,-0.1883,0.6537,"(0.0, 0.0, 0.0, 0.0, 0.0, 0.0, 0.0, 0.0, 0.0)","b'$VNYMR,-072.503,+006.203,-000.185,+00.2889,-00.1883,+00.6537,+00.559,-01.031,-09.596,+00.046018,-00.018226,-00.270080"
1666974630.8099966,0,1666974630,808837175,IMU1_Frame,0,0,0,,0.030963985071474045,0.044186932858400405,-0.5931412252080337,0.8032883875369875,"(0.0, 0.0, 0.0, 0.0, 0.0, 0.0, 0.0, 0.0, 0.0)",0.05202,-0.012768,-0.273283,"(0.0, 0.0, 0.0, 0.0, 0.0, 0.0, 0.0, 0.0, 0.0)",0.683,-1.05,-9.432,"(0.0, 0.0, 0.0, 0.0, 0.0, 0.0, 0.0, 0.0, 0.0)",0,0,0,,0.2917,-0.1983,0.6594,"(0.0, 0.0, 0.0, 0.0, 0.0, 0.0, 0.0, 0.0, 0.0)","b'$VNYMR,-072.892,+006.184,-000.154,+00.2917,-00.1983,+00.6594,+00.683,-01.050,-09.432,+00.052020,-00.012768,-00.273283"
1666974630.8539307,0,1666974630,833240509,IMU1_Frame,0,0,0,,0.031137234481147795,0.04379264558725244,-0.5958733673489542,0.8012787323432174,"(0.0, 0.0, 0.0, 0.0, 0.0, 0.0, 0.0, 0.0, 0.0)",0.037468,-0.025558,-0.271563,"(0.0, 0.0, 0.0, 0.0, 0.0, 0.0, 0.0, 0.0, 0.0)",0.701,-1.23,-9.418,"(0.0, 0.0, 0.0, 0.0, 0.0, 0.0, 0.0, 0.0, 0.0)",0,0,0,,0.2908,-0.1864,0.6504,"(0.0, 0.0, 0.0, 0.0, 0.0, 0.0, 0.0, 0.0, 0.0)","b'$VNYMR,-073.280,+006.159,-000.132,+00.2908,-00.1864,+00.6504,+00.701,-01.230,-09.418,+00.037468,-00.025558,-00.271563"
1666974630.8598828,0,1666974630,859279870,IMU1_Frame,0,0,0,,0.03115238647523277,0.0434926226262862,-0.5986121199245024,0.7992505555040162,"(0.0, 0.0, 0.0, 0.0, 0.0, 0.0, 0.0, 0.0, 0.0)",0.023153,-0.015038,-0.273385,"(0.0, 0.0, 0.0, 0.0, 0.0, 0.0, 0.0, 0.0, 0.0)",0.46,-1.458,-10.321,"(0.0, 0.0, 0.0, 0.0, 0.0, 0.0, 0.0, 0.0, 0.0)",0,0,0,,0.2927,-0.1884,0.6472,"(0.0, 0.0, 0.0, 0.0, 0.0, 0.0, 0.0, 0.0, 0.0)","b'$VNYMR,-073.671,+006.132,-000.131,+00.2927,-00.1884,+00.6472,+00.460,-01.458,-10.321,+00.023153,-00.015038,-00.273385"
1666974630.901998,0,1666974630,884107112,IMU1_Frame,0,0,0,,0.03112966370593979,0.04328586252776186,-0.6013732142708076,0.797187264888483,"(0.0, 0.0, 0.0, 0.0, 0.0, 0.0, 0.0, 0.0, 0.0)",0.023208,-0.010593,-0.278613,"(0.0, 0.0, 0.0, 0.0, 0.0, 0.0, 0.0, 0.0, 0.0)",0.496,-1.277,-9.27,"(0.0, 0.0, 0.0, 0.0, 0.0, 0.0, 0.0, 0.0, 0.0)",0,0,0,,0.2974,-0.1915,0.6652,"(0.0, 0.0, 0.0, 0.0, 0.0, 0.0, 0.0, 0.0, 0.0)","b'$VNYMR,-074.067,+006.111,-000.140,+00.2974,-00.1915,+00.6652,+00.496,-01.277,-09.270,+00.023208,-00.010593,-00.278613"
1666974630.946087,0,1666974630,909662723,IMU1_Frame,0,0,0,,0.031115778001931174,0.04305035887910469,-0.604121963240696,0.7951195686750024,"(0.0, 0.0, 0.0, 0.0, 0.0, 0.0, 0.0, 0.0, 0.0)",0.027205,-0.017605,-0.276359,"(0.0, 0.0, 0.0, 0.0, 0.0, 0.0, 0.0, 0.0, 0.0)",0.565,-0.878,-9.36,"(0.0, 0.0, 0.0, 0.0, 0.0, 0.0, 0.0, 0.0, 0.0)",0,0,0,,0.2956,-0.1885,0.6661,"(0.0, 0.0, 0.0, 0.0, 0.0, 0.0, 0.0, 0.0, 0.0)","b'$VNYMR,-074.462,+006.088,-000.146,+00.2956,-00.1885,+00.6661,+00.565,-00.878,-09.360,+00.027205,-00.017605,-00.276359"
1666974630.9461212,0,1666974630,934219598,IMU1_Frame,0,0,0,,0.031214667612877535,0.0427501392088411,-0.6068616943830308,0.7930428450052361,"(0.0, 0.0, 0.0, 0.0, 0.0, 0.0, 0.0, 0.0, 0.0)",0.037378,-0.005185,-0.275244,"(0.0, 0.0, 0.0, 0.0, 0.0, 0.0, 0.0, 0.0, 0.0)",0.256,-1.017,-10.493,"(0.0, 0.0, 0.0, 0.0, 0.0, 0.0, 0.0, 0.0, 0.0)",0,0,0,,0.2956,-0.1765,0.6527,"(0.0, 0.0, 0.0, 0.0, 0.0, 0.0, 0.0, 0.0, 0.0)","b'$VNYMR,-074.856,+006.067,-000.137,+00.2956,-00.1765,+00.6527,+00.256,-01.017,-10.493,+00.037378,-00.005185,-00.275244"
1666974630.9899406,0,1666974630,959359884,IMU1_Frame,0,0,0,,0.031353479796148886,0.042461669629129034,-0.6095872939153281,0.7909597316007728,"(0.0, 0.0, 0.0, 0.0, 0.0, 0.0, 0.0, 0.0, 0.0)",0.036073,-0.009594,-0.275116,"(0.0, 0.0, 0.0, 0.0, 0.0, 0.0, 0.0, 0.0, 0.0)",0.429,-1.04,-9.654,"(0.0, 0.0, 0.0, 0.0, 0.0, 0.0, 0.0, 0.0, 0.0)",0,0,0,,0.2975,-0.1836,0.654,"(0.0, 0.0, 0.0, 0.0, 0.0, 0.0, 0.0, 0.0, 0.0)","b'$VNYMR,-075.249,+006.050,-000.125,+00.2975,-00.1836,+00.6540,+00.429,-01.040,-09.654,+00.036073,-00.009594,-00.275116"
1666974630.9899604,0,1666974630,983968973,IMU1_Frame,0,0,0,,0.031470383634748605,0.04223261962567511,-0.6122954496269569,0.78887280543796,"(0.0, 0.0, 0.0, 0.0, 0.0, 0.0, 0.0, 0.0, 0.0)",0.029684,-0.00933,-0.274643,"(0.0, 0.0, 0.0, 0.0, 0.0, 0.0, 0.0, 0.0, 0.0)",0.431,-1.258,-10.22,"(0.0, 0.0, 0.0, 0.0, 0.0, 0.0, 0.0, 0.0, 0.0)",0,0,0,,0.2985,-0.1816,0.6585,"(0.0, 0.0, 0.0, 0.0, 0.0, 0.0, 0.0, 0.0, 0.0)","b'$VNYMR,-075.641,+006.037,-000.119,+00.2985,-00.1816,+00.6585,+00.431,-01.258,-10.220,+00.029684,-00.009330,-00.274643"
1666974631.0339913,0,1666974631,8090734,IMU1_Frame,0,0,0,,0.0315582260743477,0.042036140481203785,-0.6150149164924793,0.7867615227959698,"(0.0, 0.0, 0.0, 0.0, 0.0, 0.0, 0.0, 0.0, 0.0)",0.028077,-0.004831,-0.276052,"(0.0, 0.0, 0.0, 0.0, 0.0, 0.0, 0.0, 0.0, 0.0)",0.134,-1.177,-10.342,"(0.0, 0.0, 0.0, 0.0, 0.0, 0.0, 0.0, 0.0, 0.0)",0,0,0,,0.2956,-0.1805,0.6528,"(0.0, 0.0, 0.0, 0.0, 0.0, 0.0, 0.0, 0.0, 0.0)","b'$VNYMR,-076.036,+006.025,-000.118,+00.2956,-00.1805,+00.6528,+00.134,-01.177,-10.342,+00.028077,-00.004831,-00.276052"
1666974631.0356827,0,1666974631,35232782,IMU1_Frame,0,0,0,,0.031621994485257515,0.04186879536065175,-0.6177048017406497,0.7846577797654,"(0.0, 0.0, 0.0, 0.0, 0.0, 0.0, 0.0, 0.0, 0.0)",0.028428,-0.002671,-0.276563,"(0.0, 0.0, 0.0, 0.0, 0.0, 0.0, 0.0, 0.0, 0.0)",0.803,-1.19,-9.265,"(0.0, 0.0, 0.0, 0.0, 0.0, 0.0, 0.0, 0.0, 0.0)",0,0,0,,0.2975,-0.1796,0.6606,"(0.0, 0.0, 0.0, 0.0, 0.0, 0.0, 0.0, 0.0, 0.0)","b'$VNYMR,-076.428,+006.014,-000.121,+00.2975,-00.1796,+00.6606,+00.803,-01.190,-09.265,+00.028428,-00.002671,-00.276563"
1666974631.0780177,0,1666974631,58762788,IMU1_Frame,0,0,0,,0.031671935806097604,0.041656260166500064,-0.6203965005725843,0.782540622938213,"(0.0, 0.0, 0.0, 0.0, 0.0, 0.0, 0.0, 0.0, 0.0)",0.0281,-0.014625,-0.272883,"(0.0, 0.0, 0.0, 0.0, 0.0, 0.0, 0.0, 0.0, 0.0)",1.296,-0.707,-9.118,"(0.0, 0.0, 0.0, 0.0, 0.0, 0.0, 0.0, 0.0, 0.0)",0,0,0,,0.2957,-0.1755,0.6605,"(0.0, 0.0, 0.0, 0.0, 0.0, 0.0, 0.0, 0.0, 0.0)","b'$VNYMR,-076.821,+005.998,-000.122,+00.2957,-00.1755,+00.6605,+01.296,-00.707,-09.118,+00.028100,-00.014625,-00.272883"
1666974631.1219275,0,1666974631,83368539,IMU1_Frame,0,0,0,,0.0317977802828799,0.041304325075088896,-0.6230754850493336,0.780422830156647,"(0.0, 0.0, 0.0, 0.0, 0.0, 0.0, 0.0, 0.0, 0.0)",0.041263,-0.016525,-0.271071,"(0.0, 0.0, 0.0, 0.0, 0.0, 0.0, 0.0, 0.0, 0.0)",0.577,-0.775,-9.432,"(0.0, 0.0, 0.0, 0.0, 0.0, 0.0, 0.0, 0.0, 0.0)",0,0,0,,0.2938,-0.1735,0.6526,"(0.0, 0.0, 0.0, 0.0, 0.0, 0.0, 0.0, 0.0, 0.0)","b'$VNYMR,-077.212,+005.975,-000.106,+00.2938,-00.1735,+00.6526,+00.577,-00.775,-09.432,+00.041263,-00.016525,-00.271071"
1666974631.1219475,0,1666974631,109399795,IMU1_Frame,0,0,0,,0.03197968758058777,0.04080463613359757,-0.6257282956157352,0.7783163761081221,"(0.0, 0.0, 0.0, 0.0, 0.0, 0.0, 0.0, 0.0, 0.0)",0.053505,-0.01809,-0.268578,"(0.0, 0.0, 0.0, 0.0, 0.0, 0.0, 0.0, 0.0, 0.0)",0.497,-1.046,-9.38,"(0.0, 0.0, 0.0, 0.0, 0.0, 0.0, 0.0, 0.0, 0.0)",0,0,0,,0.2948,-0.1616,0.6437,"(0.0, 0.0, 0.0, 0.0, 0.0, 0.0, 0.0, 0.0, 0.0)","b'$VNYMR,-077.599,+005.943,-000.074,+00.2948,-00.1616,+00.6437,+00.497,-01.046,-09.380,+00.053505,-00.018090,-00.268578"
1666974631.1661115,0,1666974631,134591817,IMU1_Frame,0,0,0,,0.03209952372940409,0.04027349948488604,-0.6283679357769658,0.7762096386305579,"(0.0, 0.0, 0.0, 0.0, 0.0, 0.0, 0.0, 0.0, 0.0)",0.03865,-0.033548,-0.269146,"(0.0, 0.0, 0.0, 0.0, 0.0, 0.0, 0.0, 0.0, 0.0)",0.669,-1.461,-10.047,"(0.0, 0.0, 0.0, 0.0, 0.0, 0.0, 0.0, 0.0, 0.0)",0,0,0,,0.2948,-0.1745,0.6582,"(0.0, 0.0, 0.0, 0.0, 0.0, 0.0, 0.0, 0.0, 0.0)","b'$VNYMR,-077.985,+005.904,-000.045,+00.2948,-00.1745,+00.6582,+00.669,-01.461,-10.047,+00.038650,-00.033548,-00.269146"
1666974631.1661315,0,1666974631,158010482,IMU1_Frame,0,0,0,,0.03210712130546988,0.03990959818798238,-0.6310108684278751,0.7740811589619324,"(0.0, 0.0, 0.0, 0.0, 0.0, 0.0, 0.0, 0.0, 0.0)",0.021946,-0.017211,-0.274617,"(0.0, 0.0, 0.0, 0.0, 0.0, 0.0, 0.0, 0.0, 0.0)",-0.03,-1.891,-11.017,"(0.0, 0.0, 0.0, 0.0, 0.0, 0.0, 0.0, 0.0, 0.0)",0,0,0,,0.2903,-0.1436,0.6411,"(0.0, 0.0, 0.0, 0.0, 0.0, 0.0, 0.0, 0.0, 0.0)","b'$VNYMR,-078.374,+005.872,-000.038,+00.2903,-00.1436,+00.6411,-00.030,-01.891,-11.017,+00.021946,-00.017211,-00.274617"
1666974631.2099388,0,1666974631,185494422,IMU1_Frame,0,0,0,,0.03188828545844988,0.03988813094209021,-0.6336538641961085,0.7719293067696076,"(0.0, 0.0, 0.0, 0.0, 0.0, 0.0, 0.0, 0.0, 0.0)",-0.008622,-0.001444,-0.275931,"(0.0, 0.0, 0.0, 0.0, 0.0, 0.0, 0.0, 0.0, 0.0)",0.066,-2.077,-11.122,"(0.0, 0.0, 0.0, 0.0, 0.0, 0.0, 0.0, 0.0, 0.0)",0,0,0,,0.292,-0.1675,0.6624,"(0.0, 0.0, 0.0, 0.0, 0.0, 0.0, 0.0, 0.0, 0.0)","b'$VNYMR,-078.767,+005.854,-000.076,+00.2920,-00.1675,+00.6624,+00.066,-02.077,-11.122,-00.008622,-00.001444,-00.275931"
1666974631.2099588,0,1666974631,207936763,IMU1_Frame,0,0,0,,0.03146704119876242,0.04019450306809629,-0.6363043529688743,0.7697473596149365,"(0.0, 0.0, 0.0, 0.0, 0.0, 0.0, 0.0, 0.0, 0.0)",-0.036012,0.004456,-0.280484,"(0.0, 0.0, 0.0, 0.0, 0.0, 0.0, 0.0, 0.0, 0.0)",0.497,-1.928,-10.826,"(0.0, 0.0, 0.0, 0.0, 0.0, 0.0, 0.0, 0.0, 0.0)",0,0,0,,0.2911,-0.1625,0.6624,"(0.0, 0.0, 0.0, 0.0, 0.0, 0.0, 0.0, 0.0, 0.0)","b'$VNYMR,-079.165,+005.850,-000.156,+00.2911,-00.1625,+00.6624,+00.497,-01.928,-10.826,-00.036012,+00.004456,-00.280484"
1666974631.2540233,0,1666974631,232983827,IMU1_Frame,0,0,0,,0.030972979418767758,0.040737181930168134,-0.6389675431103983,0.7675295664700964,"(0.0, 0.0, 0.0, 0.0, 0.0, 0.0, 0.0, 0.0, 0.0)",-0.047267,0.016983,-0.284849,"(0.0, 0.0, 0.0, 0.0, 0.0, 0.0, 0.0, 0.0, 0.0)",0.13,-1.821,-11.27,"(0.0, 0.0, 0.0, 0.0, 0.0, 0.0, 0.0, 0.0, 0.0)",0,0,0,,0.2903,-0.1386,0.6366,"(0.0, 0.0, 0.0, 0.0, 0.0, 0.0, 0.0, 0.0, 0.0)","b'$VNYMR,-079.568,+005.861,-000.260,+00.2903,-00.1386,+00.6366,+00.130,-01.821,-11.270,-00.047267,+00.016983,-00.284849"
1666974631.2653143,0,1666974631,264699220,IMU1_Frame,0,0,0,,0.030587535592962328,0.04137834573761148,-0.6416448312078716,0.7652739024392442,"(0.0, 0.0, 0.0, 0.0, 0.0, 0.0, 0.0, 0.0, 0.0)",-0.037538,0.026041,-0.283643,"(0.0, 0.0, 0.0, 0.0, 0.0, 0.0, 0.0, 0.0, 0.0)",0.247,-1.204,-9.982,"(0.0, 0.0, 0.0, 0.0, 0.0, 0.0, 0.0, 0.0, 0.0)",0,0,0,,0.2949,-0.1556,0.6525,"(0.0, 0.0, 0.0, 0.0, 0.0, 0.0, 0.0, 0.0, 0.0)","b'$VNYMR,-079.975,+005.888,-000.362,+00.2949,-00.1556,+00.6525,+00.247,-01.204,-09.982,-00.037538,+00.026041,-00.283643"
1666974631.3058677,0,1666974631,284170866,IMU1_Frame,0,0,0,,0.030345764245795326,0.04190541923029527,-0.6443010057070052,0.7630198454014242,"(0.0, 0.0, 0.0, 0.0, 0.0, 0.0, 0.0, 0.0, 0.0)",-0.021101,0.016778,-0.2791,"(0.0, 0.0, 0.0, 0.0, 0.0, 0.0, 0.0, 0.0, 0.0)",0.63,-1.049,-9.695,"(0.0, 0.0, 0.0, 0.0, 0.0, 0.0, 0.0, 0.0, 0.0)",0,0,0,,0.2931,-0.1466,0.6501,"(0.0, 0.0, 0.0, 0.0, 0.0, 0.0, 0.0, 0.0, 0.0)","b'$VNYMR,-080.379,+005.915,-000.443,+00.2931,-00.1466,+00.6501,+00.630,-01.049,-09.695,-00.021101,+00.016778,-00.279100"
1666974631.350277,0,1666974631,307776212,IMU1_Frame,0,0,0,,0.030355452414871826,0.04221296387908382,-0.6469762848986087,0.7607353672388485,"(0.0, 0.0, 0.0, 0.0, 0.0, 0.0, 0.0, 0.0, 0.0)",0.009493,0.017025,-0.284036,"(0.0, 0.0, 0.0, 0.0, 0.0, 0.0, 0.0, 0.0, 0.0)",0.565,-0.821,-9.49,"(0.0, 0.0, 0.0, 0.0, 0.0, 0.0, 0.0, 0.0, 0.0)",0,0,0,,0.2904,-0.1376,0.6488,"(0.0, 0.0, 0.0, 0.0, 0.0, 0.0, 0.0, 0.0, 0.0)","b'$VNYMR,-080.785,+005.941,-000.486,+00.2904,-00.1376,+00.6488,+00.565,-00.821,-09.490,+00.009493,+00.017025,-00.284036"
1666974631.350331,0,1666974631,335430860,IMU1_Frame,0,0,0,,0.030561381131210097,0.04224015378879191,-0.6496406557953999,0.7584515737533774,"(0.0, 0.0, 0.0, 0.0, 0.0, 0.0, 0.0, 0.0, 0.0)",0.036539,0.014491,-0.281278,"(0.0, 0.0, 0.0, 0.0, 0.0, 0.0, 0.0, 0.0, 0.0)",0.607,-0.548,-8.673,"(0.0, 0.0, 0.0, 0.0, 0.0, 0.0, 0.0, 0.0, 0.0)",0,0,0,,0.2932,-0.1426,0.66,"(0.0, 0.0, 0.0, 0.0, 0.0, 0.0, 0.0, 0.0, 0.0)","b'$VNYMR,-081.188,+005.957,-000.491,+00.2932,-00.1426,+00.6600,+00.607,-00.548,-08.673,+00.036539,+00.014491,-00.281278"
1666974631.3949633,0,1666974631,358367681,IMU1_Frame,0,0,0,,0.030813855951591893,0.04204240975791901,-0.6522834656736434,0.7561806811020253,"(0.0, 0.0, 0.0, 0.0, 0.0, 0.0, 0.0, 0.0, 0.0)",0.036871,-0.004922,-0.277893,"(0.0, 0.0, 0.0, 0.0, 0.0, 0.0, 0.0, 0.0, 0.0)",0.845,-0.866,-8.638,"(0.0, 0.0, 0.0, 0.0, 0.0, 0.0, 0.0, 0.0, 0.0)",0,0,0,,0.2923,-0.1327,0.6455,"(0.0, 0.0, 0.0, 0.0, 0.0, 0.0, 0.0, 0.0, 0.0)","b'$VNYMR,-081.587,+005.957,-000.475,+00.2923,-00.1327,+00.6455,+00.845,-00.866,-08.638,+00.036871,-00.004922,-00.277893"
1666974631.3994193,0,1666974631,390636444,IMU1_Frame,0,0,0,,0.031024611958000724,0.041728805430436396,-0.6549375091798139,0.7538919281432488,"(0.0, 0.0, 0.0, 0.0, 0.0, 0.0, 0.0, 0.0, 0.0)",0.039905,-0.01357,-0.279689,"(0.0, 0.0, 0.0, 0.0, 0.0, 0.0, 0.0, 0.0, 0.0)",0.56,-0.69,-9.261,"(0.0, 0.0, 0.0, 0.0, 0.0, 0.0, 0.0, 0.0, 0.0)",0,0,0,,0.2895,-0.1296,0.6476,"(0.0, 0.0, 0.0, 0.0, 0.0, 0.0, 0.0, 0.0, 0.0)","b'$VNYMR,-081.988,+005.944,-000.454,+00.2895,-00.1296,+00.6476,+00.560,-00.690,-09.261,+00.039905,-00.013570,-00.279689"
1666974631.4421172,0,1666974631,413898468,IMU1_Frame,0,0,0,,0.031154826535376615,0.04139047924157325,-0.6575842299960932,0.7515977551005248,"(0.0, 0.0, 0.0, 0.0, 0.0, 0.0, 0.0, 0.0, 0.0)",0.04088,-0.005547,-0.279248,"(0.0, 0.0, 0.0, 0.0, 0.0, 0.0, 0.0, 0.0, 0.0)",0.526,-0.869,-8.676,"(0.0, 0.0, 0.0, 0.0, 0.0, 0.0, 0.0, 0.0, 0.0)",0,0,0,,0.2895,-0.1356,0.6565,"(0.0, 0.0, 0.0, 0.0, 0.0, 0.0, 0.0, 0.0, 0.0)","b'$VNYMR,-082.389,+005.923,-000.438,+00.2895,-00.1356,+00.6565,+00.526,-00.869,-08.676,+00.040880,-00.005547,-00.279248"
1666974631.4421558,0,1666974631,432971477,IMU1_Frame,0,0,0,,0.031086623588582944,0.04102732274930059,-0.6602163896387947,0.7493094817725195,"(0.0, 0.0, 0.0, 0.0, 0.0, 0.0, 0.0, 0.0, 0.0)",0.026259,-0.032735,-0.278167,"(0.0, 0.0, 0.0, 0.0, 0.0, 0.0, 0.0, 0.0, 0.0)",0.63,-0.755,-8.824,"(0.0, 0.0, 0.0, 0.0, 0.0, 0.0, 0.0, 0.0, 0.0)",0,0,0,,0.2923,-0.1366,0.6566,"(0.0, 0.0, 0.0, 0.0, 0.0, 0.0, 0.0, 0.0, 0.0)","b'$VNYMR,-082.789,+005.885,-000.437,+00.2923,-00.1366,+00.6566,+00.630,-00.755,-08.824,+00.026259,-00.032735,-00.278167"
1666974631.4859571,0,1666974631,457893371,IMU1_Frame,0,0,0,,0.031031143680988485,0.04061694396331946,-0.6628367237024536,0.7470172753667265,"(0.0, 0.0, 0.0, 0.0, 0.0, 0.0, 0.0, 0.0, 0.0)",0.036018,-0.020669,-0.280228,"(0.0, 0.0, 0.0, 0.0, 0.0, 0.0, 0.0, 0.0, 0.0)",0.325,-0.863,-9.599,"(0.0, 0.0, 0.0, 0.0, 0.0, 0.0, 0.0, 0.0, 0.0)",0,0,0,,0.2905,-0.1227,0.6453,"(0.0, 0.0, 0.0, 0.0, 0.0, 0.0, 0.0, 0.0, 0.0)","b'$VNYMR,-083.188,+005.844,-000.431,+00.2905,-00.1227,+00.6453,+00.325,-00.863,-09.599,+00.036018,-00.020669,-00.280228"
1666974631.485976,0,1666974631,483941793,IMU1_Frame,0,0,0,,0.030996114705436364,0.04011674221784812,-0.6654410494206009,0.7447268610792842,"(0.0, 0.0, 0.0, 0.0, 0.0, 0.0, 0.0, 0.0, 0.0)",0.03964,-0.033129,-0.274334,"(0.0, 0.0, 0.0, 0.0, 0.0, 0.0, 0.0, 0.0, 0.0)",0.671,-0.939,-8.89,"(0.0, 0.0, 0.0, 0.0, 0.0, 0.0, 0.0, 0.0, 0.0)",0,0,0,,0.2895,-0.1247,0.6309,"(0.0, 0.0, 0.0, 0.0, 0.0, 0.0, 0.0, 0.0, 0.0)","b'$VNYMR,-083.585,+005.797,-000.416,+00.2895,-00.1247,+00.6309,+00.671,-00.939,-08.890,+00.039640,-00.033129,-00.274334"
1666974631.5299804,0,1666974631,507151126,IMU1_Frame,0,0,0,,0.030995095436674072,0.03957187250454172,-0.6679946374502113,0.7424665213348791,"(0.0, 0.0, 0.0, 0.0, 0.0, 0.0, 0.0, 0.0, 0.0)",0.039991,-0.037049,-0.26844,"(0.0, 0.0, 0.0, 0.0, 0.0, 0.0, 0.0, 0.0, 0.0)",0.493,-1.111,-9.649,"(0.0, 0.0, 0.0, 0.0, 0.0, 0.0, 0.0, 0.0, 0.0)",0,0,0,,0.2905,-0.1306,0.6543,"(0.0, 0.0, 0.0, 0.0, 0.0, 0.0, 0.0, 0.0, 0.0)","b'$VNYMR,-083.975,+005.749,-000.394,+00.2905,-00.1306,+00.6543,+00.493,-01.111,-09.649,+00.039991,-00.037049,-00.268440"
1666974631.5351415,0,1666974631,534626722,IMU1_Frame,0,0,0,,0.031078129983158526,0.03900708888336517,-0.6705417892217667,0.740193424559329,"(0.0, 0.0, 0.0, 0.0, 0.0, 0.0, 0.0, 0.0, 0.0)",0.047411,-0.027741,-0.269738,"(0.0, 0.0, 0.0, 0.0, 0.0, 0.0, 0.0, 0.0, 0.0)",0.308,-1.301,-10.046,"(0.0, 0.0, 0.0, 0.0, 0.0, 0.0, 0.0, 0.0, 0.0)",0,0,0,,0.2896,-0.1226,0.6486,"(0.0, 0.0, 0.0, 0.0, 0.0, 0.0, 0.0, 0.0, 0.0)","b'$VNYMR,-084.365,+005.706,-000.363,+00.2896,-00.1226,+00.6486,+00.308,-01.301,-10.046,+00.047411,-00.027741,-00.269738"
1666974631.5778954,0,1666974631,558671474,IMU1_Frame,0,0,0,,0.031200729372921086,0.03843827888349712,-0.6730748866735476,0.7379154491758952,"(0.0, 0.0, 0.0, 0.0, 0.0, 0.0, 0.0, 0.0, 0.0)",0.050845,-0.02131,-0.270539,"(0.0, 0.0, 0.0, 0.0, 0.0, 0.0, 0.0, 0.0, 0.0)",0.393,-1.329,-9.975,"(0.0, 0.0, 0.0, 0.0, 0.0, 0.0, 0.0, 0.0, 0.0)",0,0,0,,0.2905,-0.1296,0.6509,"(0.0, 0.0, 0.0, 0.0, 0.0, 0.0, 0.0, 0.0, 0.0)","b'$VNYMR,-084.754,+005.666,-000.328,+00.2905,-00.1296,+00.6509,+00.393,-01.329,-09.975,+00.050845,-00.021310,-00.270539"
1666974631.6220489,0,1666974631,584385395,IMU1_Frame,0,0,0,,0.03132558451580708,0.03786372655346144,-0.6755874341402741,0.7356403093890305,"(0.0, 0.0, 0.0, 0.0, 0.0, 0.0, 0.0, 0.0, 0.0)",0.049849,-0.031382,-0.270818,"(0.0, 0.0, 0.0, 0.0, 0.0, 0.0, 0.0, 0.0, 0.0)",0.555,-1.41,-9.531,"(0.0, 0.0, 0.0, 0.0, 0.0, 0.0, 0.0, 0.0, 0.0)",0,0,0,,0.2896,-0.1276,0.6553,"(0.0, 0.0, 0.0, 0.0, 0.0, 0.0, 0.0, 0.0, 0.0)","b'$VNYMR,-085.141,+005.626,-000.292,+00.2896,-00.1276,+00.6553,+00.555,-01.410,-09.531,+00.049849,-00.031382,-00.270818"
1666974631.6220663,0,1666974631,607624769,IMU1_Frame,0,0,0,,0.031434441414109934,0.037300319229824165,-0.6780977293488432,0.7333512334006667,"(0.0, 0.0, 0.0, 0.0, 0.0, 0.0, 0.0, 0.0, 0.0)",0.044207,-0.027358,-0.270782,"(0.0, 0.0, 0.0, 0.0, 0.0, 0.0, 0.0, 0.0, 0.0)",0.12,-1.564,-10.347,"(0.0, 0.0, 0.0, 0.0, 0.0, 0.0, 0.0, 0.0, 0.0)",0,0,0,,0.2858,-0.1136,0.6362,"(0.0, 0.0, 0.0, 0.0, 0.0, 0.0, 0.0, 0.0, 0.0)","b'$VNYMR,-085.529,+005.586,-000.258,+00.2858,-00.1136,+00.6362,+00.120,-01.564,-10.347,+00.044207,-00.027358,-00.270782"
1666974631.6666255,0,1666974631,633556842,IMU1_Frame,0,0,0,,0.031488452269624885,0.036820242897886435,-0.6806146806229352,0.7310378947818944,"(0.0, 0.0, 0.0, 0.0, 0.0, 0.0, 0.0, 0.0, 0.0)",0.038367,-0.019802,-0.277206,"(0.0, 0.0, 0.0, 0.0, 0.0, 0.0, 0.0, 0.0, 0.0)",0.38,-1.859,-9.863,"(0.0, 0.0, 0.0, 0.0, 0.0, 0.0, 0.0, 0.0, 0.0)",0,0,0,,0.2858,-0.1176,0.6417,"(0.0, 0.0, 0.0, 0.0, 0.0, 0.0, 0.0, 0.0, 0.0)","b'$VNYMR,-085.920,+005.549,-000.235,+00.2858,-00.1176,+00.6417,+00.380,-01.859,-09.863,+00.038367,-00.019802,-00.277206"
1666974631.666645,0,1666974631,659344434,IMU1_Frame,0,0,0,,0.03139718068408015,0.03641409652577063,-0.6831574828431535,0.7286865473265647,"(0.0, 0.0, 0.0, 0.0, 0.0, 0.0, 0.0, 0.0, 0.0)",0.023556,-0.031194,-0.280091,"(0.0, 0.0, 0.0, 0.0, 0.0, 0.0, 0.0, 0.0, 0.0)",0.66,-1.829,-9.692,"(0.0, 0.0, 0.0, 0.0, 0.0, 0.0, 0.0, 0.0, 0.0)",0,0,0,,0.2878,-0.1196,0.6584,"(0.0, 0.0, 0.0, 0.0, 0.0, 0.0, 0.0, 0.0, 0.0)","b'$VNYMR,-086.317,+005.507,-000.230,+00.2878,-00.1196,+00.6584,+00.660,-01.829,-09.692,+00.023556,-00.031194,-00.280091"
1666974631.7100787,0,1666974631,684478521,IMU1_Frame,0,0,0,,0.031236382471700127,0.036036517598062055,-0.6857221161906284,0.7262994128983807,"(0.0, 0.0, 0.0, 0.0, 0.0, 0.0, 0.0, 0.0, 0.0)",0.016961,-0.03388,-0.281561,"(0.0, 0.0, 0.0, 0.0, 0.0, 0.0, 0.0, 0.0, 0.0)",0.298,-1.587,-10.377,"(0.0, 0.0, 0.0, 0.0, 0.0, 0.0, 0.0, 0.0, 0.0)",0,0,0,,0.2869,-0.1146,0.6539,"(0.0, 0.0, 0.0, 0.0, 0.0, 0.0, 0.0, 0.0, 0.0)","b'$VNYMR,-086.719,+005.462,-000.233,+00.2869,-00.1146,+00.6539,+00.298,-01.587,-10.377,+00.016961,-00.033880,-00.281561"
1666974631.7145135,0,1666974631,714106798,IMU1_Frame,0,0,0,,0.031066703770364516,0.03573909869006269,-0.6883059360881959,0.7238732728091422,"(0.0, 0.0, 0.0, 0.0, 0.0, 0.0, 0.0, 0.0, 0.0)",0.018451,-0.02237,-0.286996,"(0.0, 0.0, 0.0, 0.0, 0.0, 0.0, 0.0, 0.0, 0.0)",0.366,-1.627,-9.968,"(0.0, 0.0, 0.0, 0.0, 0.0, 0.0, 0.0, 0.0, 0.0)",0,0,0,,0.2878,-0.1156,0.654,"(0.0, 0.0, 0.0, 0.0, 0.0, 0.0, 0.0, 0.0, 0.0)","b'$VNYMR,-087.126,+005.423,-000.243,+00.2878,-00.1156,+00.6540,+00.366,-01.627,-09.968,+00.018451,-00.022370,-00.286996"
1666974631.7581508,0,1666974631,733229875,IMU1_Frame,0,0,0,,0.03081434474208621,0.0355088561237822,-0.6908903037710907,0.7214292657287936,"(0.0, 0.0, 0.0, 0.0, 0.0, 0.0, 0.0, 0.0, 0.0)",0.006368,-0.026613,-0.286948,"(0.0, 0.0, 0.0, 0.0, 0.0, 0.0, 0.0, 0.0, 0.0)",0.733,-1.66,-10.12,"(0.0, 0.0, 0.0, 0.0, 0.0, 0.0, 0.0, 0.0, 0.0)",0,0,0,,0.2859,-0.1096,0.6394,"(0.0, 0.0, 0.0, 0.0, 0.0, 0.0, 0.0, 0.0, 0.0)","b'$VNYMR,-087.535,+005.383,-000.265,+00.2859,-00.1096,+00.6394,+00.733,-01.660,-10.120,+00.006368,-00.026613,-00.286948"
1666974631.8019724,0,1666974631,758566141,IMU1_Frame,0,0,0,,0.030472009245467828,0.03541489083997833,-0.6934592325670164,0.7189795093929321,"(0.0, 0.0, 0.0, 0.0, 0.0, 0.0, 0.0, 0.0, 0.0)",-0.010902,-0.025435,-0.2852,"(0.0, 0.0, 0.0, 0.0, 0.0, 0.0, 0.0, 0.0, 0.0)",0.006,-1.651,-10.895,"(0.0, 0.0, 0.0, 0.0, 0.0, 0.0, 0.0, 0.0, 0.0)",0,0,0,,0.2841,-0.1006,0.6326,"(0.0, 0.0, 0.0, 0.0, 0.0, 0.0, 0.0, 0.0, 0.0)","b'$VNYMR,-087.944,+005.347,-000.305,+00.2841,-00.1006,+00.6326,+00.006,-01.651,-10.895,-00.010902,-00.025435,-00.285200"
1666974631.8019898,0,1666974631,784025430,IMU1_Frame,0,0,0,,0.030100744286985993,0.03555816594038425,-0.6959953512872986,0.7165333439657888,"(0.0, 0.0, 0.0, 0.0, 0.0, 0.0, 0.0, 0.0, 0.0)",-0.021962,-0.002306,-0.28555,"(0.0, 0.0, 0.0, 0.0, 0.0, 0.0, 0.0, 0.0, 0.0)",0.268,-1.649,-10.31,"(0.0, 0.0, 0.0, 0.0, 0.0, 0.0, 0.0, 0.0, 0.0)",0,0,0,,0.285,-0.1096,0.6516,"(0.0, 0.0, 0.0, 0.0, 0.0, 0.0, 0.0, 0.0, 0.0)","b'$VNYMR,-088.351,+005.328,-000.366,+00.2850,-00.1096,+00.6516,+00.268,-01.649,-10.310,-00.021962,-00.002306,-00.285550"
1666974631.8475199,0,1666974631,807465314,IMU1_Frame,0,0,0,,0.029635882476383456,0.035821637764605806,-0.6984919058051199,0.714106142154259,"(0.0, 0.0, 0.0, 0.0, 0.0, 0.0, 0.0, 0.0, 0.0)",-0.033027,-0.010508,-0.281593,"(0.0, 0.0, 0.0, 0.0, 0.0, 0.0, 0.0, 0.0, 0.0)",0.457,-1.628,-9.969,"(0.0, 0.0, 0.0, 0.0, 0.0, 0.0, 0.0, 0.0, 0.0)",0,0,0,,0.2831,-0.1115,0.6471,"(0.0, 0.0, 0.0, 0.0, 0.0, 0.0, 0.0, 0.0, 0.0)","b'$VNYMR,-088.754,+005.311,-000.444,+00.2831,-00.1115,+00.6471,+00.457,-01.628,-09.969,-00.033027,-00.010508,-00.281593"
1666974631.8475392,0,1666974631,832933664,IMU1_Frame,0,0,0,,0.02922786205980999,0.03612053535628519,-0.7009658301493384,0.7116796638713493,"(0.0, 0.0, 0.0, 0.0, 0.0, 0.0, 0.0, 0.0, 0.0)",-0.026324,-0.00019,-0.278671,"(0.0, 0.0, 0.0, 0.0, 0.0, 0.0, 0.0, 0.0, 0.0)",-0.016,-1.405,-10.43,"(0.0, 0.0, 0.0, 0.0, 0.0, 0.0, 0.0, 0.0, 0.0)",0,0,0,,0.283,-0.1095,0.6327,"(0.0, 0.0, 0.0, 0.0, 0.0, 0.0, 0.0, 0.0, 0.0)","b'$VNYMR,-089.155,+005.301,-000.520,+00.2830,-00.1095,+00.6327,-00.016,-01.405,-10.430,-00.026324,-00.000190,-00.278671"
1666974631.890231,0,1666974631,872520446,IMU1_Frame,0,0,0,,0.028944833650709805,0.03637464594534366,-0.70341507798635,0.7092575764831427,"(0.0, 0.0, 0.0, 0.0, 0.0, 0.0, 0.0, 0.0, 0.0)",-0.009415,0.009765,-0.27833,"(0.0, 0.0, 0.0, 0.0, 0.0, 0.0, 0.0, 0.0, 0.0)",0.438,-1.194,-9.628,"(0.0, 0.0, 0.0, 0.0, 0.0, 0.0, 0.0, 0.0, 0.0)",0,0,0,,0.2773,-0.1094,0.6269,"(0.0, 0.0, 0.0, 0.0, 0.0, 0.0, 0.0, 0.0, 0.0)","b'$VNYMR,-089.553,+005.297,-000.582,+00.2773,-00.1094,+00.6269,+00.438,-01.194,-09.628,-00.009415,+00.009765,-00.278330"
1666974631.890257,0,1666974631,883194684,IMU1_Frame,0,0,0,,0.028743796816305917,0.03652666878032636,-0.7058550342220904,0.7068297300451692,"(0.0, 0.0, 0.0, 0.0, 0.0, 0.0, 0.0, 0.0, 0.0)",-0.00716,-0.008599,-0.279383,"(0.0, 0.0, 0.0, 0.0, 0.0, 0.0, 0.0, 0.0, 0.0)",0.489,-1.444,-9.67,"(0.0, 0.0, 0.0, 0.0, 0.0, 0.0, 0.0, 0.0, 0.0)",0,0,0,,0.2774,-0.1064,0.6235,"(0.0, 0.0, 0.0, 0.0, 0.0, 0.0, 0.0, 0.0, 0.0)","b'$VNYMR,-089.950,+005.291,-000.629,+00.2774,-00.1064,+00.6235,+00.489,-01.444,-09.670,-00.007160,-00.008599,-00.279383"
1666974631.9347324,0,1666974631,910743474,IMU1_Frame,0,0,0,,0.028643881868686057,0.036716438603077,-0.708303022678428,0.7043708250860492,"(0.0, 0.0, 0.0, 0.0, 0.0, 0.0, 0.0, 0.0, 0.0)",-0.005986,0.010181,-0.280753,"(0.0, 0.0, 0.0, 0.0, 0.0, 0.0, 0.0, 0.0, 0.0)",0.088,-1.54,-10.179,"(0.0, 0.0, 0.0, 0.0, 0.0, 0.0, 0.0, 0.0, 0.0)",0,0,0,,0.2764,-0.1123,0.6257,"(0.0, 0.0, 0.0, 0.0, 0.0, 0.0, 0.0, 0.0, 0.0)","b'$VNYMR,-090.350,+005.296,-000.671,+00.2764,-00.1123,+00.6257,+00.088,-01.540,-10.179,-00.005986,+00.010181,-00.280753"
1666974631.936755,0,1666974631,936105966,IMU1_Frame,0,0,0,,0.028635025489492177,0.036978721655888426,-0.7107874155696152,0.7018503111973232,"(0.0, 0.0, 0.0, 0.0, 0.0, 0.0, 0.0, 0.0, 0.0)",-0.001902,0.027039,-0.286603,"(0.0, 0.0, 0.0, 0.0, 0.0, 0.0, 0.0, 0.0, 0.0)",0.473,-1.283,-9.62,"(0.0, 0.0, 0.0, 0.0, 0.0, 0.0, 0.0, 0.0, 0.0)",0,0,0,,0.2782,-0.1183,0.6314,"(0.0, 0.0, 0.0, 0.0, 0.0, 0.0, 0.0, 0.0, 0.0)","b'$VNYMR,-090.758,+005.314,-000.712,+00.2782,-00.1183,+00.6314,+00.473,-01.283,-09.620,-00.001902,+00.027039,-00.286603"
1666974631.9782915,0,1666974631,958974123,IMU1_Frame,0,0,0,,0.02866772099438983,0.037276611227585174,-0.7132972862214855,0.6992822016163714,"(0.0, 0.0, 0.0, 0.0, 0.0, 0.0, 0.0, 0.0, 0.0)",-0.002942,0.016359,-0.289709,"(0.0, 0.0, 0.0, 0.0, 0.0, 0.0, 0.0, 0.0, 0.0)",0.512,-0.903,-9.387,"(0.0, 0.0, 0.0, 0.0, 0.0, 0.0, 0.0, 0.0, 0.0)",0,0,0,,0.28,-0.1254,0.6327,"(0.0, 0.0, 0.0, 0.0, 0.0, 0.0, 0.0, 0.0, 0.0)","b'$VNYMR,-091.172,+005.338,-000.753,+00.2800,-00.1254,+00.6327,+00.512,-00.903,-09.387,-00.002942,+00.016359,-00.289709"
1666974632.0220041,0,1666974631,984585285,IMU1_Frame,0,0,0,,0.028863864686800914,0.03752221417974647,-0.715824529999757,0.6966736703859404,"(0.0, 0.0, 0.0, 0.0, 0.0, 0.0, 0.0, 0.0, 0.0)",0.018114,0.030446,-0.294587,"(0.0, 0.0, 0.0, 0.0, 0.0, 0.0, 0.0, 0.0, 0.0)",0.381,-0.648,-9.485,"(0.0, 0.0, 0.0, 0.0, 0.0, 0.0, 0.0, 0.0, 0.0)",0,0,0,,0.2792,-0.1045,0.6125,"(0.0, 0.0, 0.0, 0.0, 0.0, 0.0, 0.0, 0.0, 0.0)","b'$VNYMR,-091.590,+005.371,-000.777,+00.2792,-00.1045,+00.6125,+00.381,-00.648,-09.485,+00.018114,+00.030446,-00.294587"
1666974632.0220327,0,1666974632,11522054,IMU1_Frame,0,0,0,,0.02924465045917651,0.03756571817975118,-0.7183707570872843,0.6940295545572984,"(0.0, 0.0, 0.0, 0.0, 0.0, 0.0, 0.0, 0.0, 0.0)",0.041955,0.028398,-0.294006,"(0.0, 0.0, 0.0, 0.0, 0.0, 0.0, 0.0, 0.0, 0.0)",0.545,-0.612,-8.686,"(0.0, 0.0, 0.0, 0.0, 0.0, 0.0, 0.0, 0.0, 0.0)",0,0,0,,0.281,-0.1135,0.6116,"(0.0, 0.0, 0.0, 0.0, 0.0, 0.0, 0.0, 0.0, 0.0)","b'$VNYMR,-092.011,+005.403,-000.770,+00.2810,-00.1135,+00.6116,+00.545,-00.612,-08.686,+00.041955,+00.028398,-00.294006"
1666974632.0658855,0,1666974632,40719509,IMU1_Frame,0,0,0,,0.029756324842197465,0.037395376942948595,-0.7209002730450643,0.6913891402377769,"(0.0, 0.0, 0.0, 0.0, 0.0, 0.0, 0.0, 0.0, 0.0)",0.050786,0.011502,-0.288761,"(0.0, 0.0, 0.0, 0.0, 0.0, 0.0, 0.0, 0.0, 0.0)",0.702,-0.825,-9.16,"(0.0, 0.0, 0.0, 0.0, 0.0, 0.0, 0.0, 0.0, 0.0)",0,0,0,,0.2838,-0.1255,0.6251,"(0.0, 0.0, 0.0, 0.0, 0.0, 0.0, 0.0, 0.0, 0.0)","b'$VNYMR,-092.429,+005.429,-000.735,+00.2838,-00.1255,+00.6251,+00.702,-00.825,-09.160,+00.050786,+00.011502,-00.288761"
1666974632.0659034,0,1666974632,58598995,IMU1_Frame,0,0,0,,0.030325093142337646,0.03707243414887331,-0.7234279444238633,0.6887365480202499,"(0.0, 0.0, 0.0, 0.0, 0.0, 0.0, 0.0, 0.0, 0.0)",0.062403,0.012308,-0.290809,"(0.0, 0.0, 0.0, 0.0, 0.0, 0.0, 0.0, 0.0, 0.0)",0.507,-0.922,-10.159,"(0.0, 0.0, 0.0, 0.0, 0.0, 0.0, 0.0, 0.0, 0.0)",0,0,0,,0.2858,-0.1116,0.6262,"(0.0, 0.0, 0.0, 0.0, 0.0, 0.0, 0.0, 0.0, 0.0)","b'$VNYMR,-092.847,+005.448,-000.683,+00.2858,-00.1116,+00.6262,+00.507,-00.922,-10.159,+00.062403,+00.012308,-00.290809"
1666974632.110485,0,1666974632,82829713,IMU1_Frame,0,0,0,,0.03085110890170447,0.03663656154609906,-0.7259397567004774,0.686088508196476,"(0.0, 0.0, 0.0, 0.0, 0.0, 0.0, 0.0, 0.0, 0.0)",0.067356,0.003393,-0.289716,"(0.0, 0.0, 0.0, 0.0, 0.0, 0.0, 0.0, 0.0, 0.0)",0.495,-0.865,-9.345,"(0.0, 0.0, 0.0, 0.0, 0.0, 0.0, 0.0, 0.0, 0.0)",0,0,0,,0.2942,-0.1178,0.6266,"(0.0, 0.0, 0.0, 0.0, 0.0, 0.0, 0.0, 0.0, 0.0)","b'$VNYMR,-093.263,+005.455,-000.625,+00.2942,-00.1178,+00.6266,+00.495,-00.865,-09.345,+00.067356,+00.003393,-00.289716"
1666974632.1105149,0,1666974632,108611583,IMU1_Frame,0,0,0,,0.031235858884177174,0.036140937330751716,-0.7284272632666615,0.6834558331731935,"(0.0, 0.0, 0.0, 0.0, 0.0, 0.0, 0.0, 0.0, 0.0)",0.059153,-0.016381,-0.286854,"(0.0, 0.0, 0.0, 0.0, 0.0, 0.0, 0.0, 0.0, 0.0)",0.382,-1.187,-9.609,"(0.0, 0.0, 0.0, 0.0, 0.0, 0.0, 0.0, 0.0, 0.0)",0,0,0,,0.2998,-0.122,0.6225,"(0.0, 0.0, 0.0, 0.0, 0.0, 0.0, 0.0, 0.0, 0.0)","b'$VNYMR,-093.676,+005.446,-000.573,+00.2998,-00.1220,+00.6225,+00.382,-01.187,-09.609,+00.059153,-00.016381,-00.286854"
1666974632.154226,0,1666974632,134336233,IMU1_Frame,0,0,0,,0.031517350660618525,0.035622445767941095,-0.73089456855987,0.6808309831481872,"(0.0, 0.0, 0.0, 0.0, 0.0, 0.0, 0.0, 0.0, 0.0)",0.056828,-0.009318,-0.28849,"(0.0, 0.0, 0.0, 0.0, 0.0, 0.0, 0.0, 0.0, 0.0)",0.448,-1.442,-10.022,"(0.0, 0.0, 0.0, 0.0, 0.0, 0.0, 0.0, 0.0, 0.0)",0,0,0,,0.298,-0.11,0.6145,"(0.0, 0.0, 0.0, 0.0, 0.0, 0.0, 0.0, 0.0, 0.0)","b'$VNYMR,-094.087,+005.427,-000.527,+00.2980,-00.1100,+00.6145,+00.448,-01.442,-10.022,+00.056828,-00.009318,-00.288490"
1666974632.159891,0,1666974632,158998012,IMU1_Frame,0,0,0,,0.03161089042479054,0.03512224267490729,-0.7333459459821013,0.6782115475186585,"(0.0, 0.0, 0.0, 0.0, 0.0, 0.0, 0.0, 0.0, 0.0)",0.044099,-0.021924,-0.287178,"(0.0, 0.0, 0.0, 0.0, 0.0, 0.0, 0.0, 0.0, 0.0)",0.835,-1.502,-9.289,"(0.0, 0.0, 0.0, 0.0, 0.0, 0.0, 0.0, 0.0, 0.0)",0,0,0,,0.3056,-0.1172,0.6304,"(0.0, 0.0, 0.0, 0.0, 0.0, 0.0, 0.0, 0.0, 0.0)","b'$VNYMR,-094.497,+005.394,-000.497,+00.3056,-00.1172,+00.6304,+00.835,-01.502,-09.289,+00.044099,-00.021924,-00.287178"
1666974632.2024872,0,1666974632,184144020,IMU1_Frame,0,0,0,,0.03160965453222802,0.034644250110599385,-0.7357869506407697,0.6755872770718713,"(0.0, 0.0, 0.0, 0.0, 0.0, 0.0, 0.0, 0.0, 0.0)",0.034581,-0.02388,-0.285198,"(0.0, 0.0, 0.0, 0.0, 0.0, 0.0, 0.0, 0.0, 0.0)",0.29,-1.596,-10.066,"(0.0, 0.0, 0.0, 0.0, 0.0, 0.0, 0.0, 0.0, 0.0)",0,0,0,,0.3094,-0.1183,0.6317,"(0.0, 0.0, 0.0, 0.0, 0.0, 0.0, 0.0, 0.0, 0.0)","b'$VNYMR,-094.907,+005.355,-000.476,+00.3094,-00.1183,+00.6317,+00.290,-01.596,-10.066,+00.034581,-00.023880,-00.285198"
1666974632.2472196,0,1666974632,209096431,IMU1_Frame,0,0,0,,0.031587487052947845,0.03418631301600625,-0.7382116025513142,0.6729614821984033,"(0.0, 0.0, 0.0, 0.0, 0.0, 0.0, 0.0, 0.0, 0.0)",0.034854,-0.020104,-0.285141,"(0.0, 0.0, 0.0, 0.0, 0.0, 0.0, 0.0, 0.0, 0.0)",0.214,-1.416,-10.22,"(0.0, 0.0, 0.0, 0.0, 0.0, 0.0, 0.0, 0.0, 0.0)",0,0,0,,0.3113,-0.1164,0.6351,"(0.0, 0.0, 0.0, 0.0, 0.0, 0.0, 0.0, 0.0, 0.0)","b'$VNYMR,-095.316,+005.316,-000.458,+00.3113,-00.1164,+00.6351,+00.214,-01.416,-10.220,+00.034854,-00.020104,-00.285141"
1666974632.247442,0,1666974632,234087944,IMU1_Frame,0,0,0,,0.03155601522756923,0.03373598509063128,-0.740614714016194,0.6703401722973444,"(0.0, 0.0, 0.0, 0.0, 0.0, 0.0, 0.0, 0.0, 0.0)",0.031257,-0.028154,-0.283608,"(0.0, 0.0, 0.0, 0.0, 0.0, 0.0, 0.0, 0.0, 0.0)",0.487,-1.639,-9.612,"(0.0, 0.0, 0.0, 0.0, 0.0, 0.0, 0.0, 0.0, 0.0)",0,0,0,,0.3151,-0.1105,0.633,"(0.0, 0.0, 0.0, 0.0, 0.0, 0.0, 0.0, 0.0, 0.0)","b'$VNYMR,-095.723,+005.277,-000.441,+00.3151,-00.1105,+00.6330,+00.487,-01.639,-09.612,+00.031257,-00.028154,-00.283608"
1666974632.2907665,0,1666974632,269171714,IMU1_Frame,0,0,0,,0.031531524651307555,0.03335367564251889,-0.7430049827009717,0.6677101848525498,"(0.0, 0.0, 0.0, 0.0, 0.0, 0.0, 0.0, 0.0, 0.0)",0.029524,-0.02019,-0.283809,"(0.0, 0.0, 0.0, 0.0, 0.0, 0.0, 0.0, 0.0, 0.0)",0.093,-1.74,-9.971,"(0.0, 0.0, 0.0, 0.0, 0.0, 0.0, 0.0, 0.0, 0.0)",0,0,0,,0.3123,-0.1084,0.6262,"(0.0, 0.0, 0.0, 0.0, 0.0, 0.0, 0.0, 0.0, 0.0)","b'$VNYMR,-096.130,+005.244,-000.429,+00.3123,-00.1084,+00.6262,+00.093,-01.740,-09.971,+00.029524,-00.020190,-00.283809"
1666974632.295809,0,1666974632,295170783,IMU1_Frame,0,0,0,,0.03157980378529193,0.03309731387692878,-0.7453792765233365,0.665069182819774,"(0.0, 0.0, 0.0, 0.0, 0.0, 0.0, 0.0, 0.0, 0.0)",0.028773,0.000202,-0.285959,"(0.0, 0.0, 0.0, 0.0, 0.0, 0.0, 0.0, 0.0, 0.0)",-0.018,-1.776,-9.705,"(0.0, 0.0, 0.0, 0.0, 0.0, 0.0, 0.0, 0.0, 0.0)",0,0,0,,0.3123,-0.1154,0.6374,"(0.0, 0.0, 0.0, 0.0, 0.0, 0.0, 0.0, 0.0, 0.0)","b'$VNYMR,-096.537,+005.227,-000.422,+00.3123,-00.1154,+00.6374,-00.018,-01.776,-09.705,+00.028773,+00.000202,-00.285959"
1666974632.3379533,0,1666974632,309069395,IMU1_Frame,0,0,0,,0.031551702066260984,0.033030814032984926,-0.7477352792674287,0.6624238881259495,"(0.0, 0.0, 0.0, 0.0, 0.0, 0.0, 0.0, 0.0, 0.0)",0.005234,-0.005516,-0.28473,"(0.0, 0.0, 0.0, 0.0, 0.0, 0.0, 0.0, 0.0, 0.0)",0.291,-1.987,-9.514,"(0.0, 0.0, 0.0, 0.0, 0.0, 0.0, 0.0, 0.0, 0.0)",0,0,0,,0.3142,-0.1194,0.6441,"(0.0, 0.0, 0.0, 0.0, 0.0, 0.0, 0.0, 0.0, 0.0)","b'$VNYMR,-096.944,+005.218,-000.437,+00.3142,-00.1194,+00.6441,+00.291,-01.987,-09.514,+00.005234,-00.005516,-00.284730"
1666974632.337972,0,1666974632,334351062,IMU1_Frame,0,0,0,,0.03139642217708762,0.03318873785169612,-0.7500831060067527,0.6597636746878022,"(0.0, 0.0, 0.0, 0.0, 0.0, 0.0, 0.0, 0.0, 0.0)",-0.015648,-0.000642,-0.287346,"(0.0, 0.0, 0.0, 0.0, 0.0, 0.0, 0.0, 0.0, 0.0)",0.1,-2.14,-10.511,"(0.0, 0.0, 0.0, 0.0, 0.0, 0.0, 0.0, 0.0, 0.0)",0,0,0,,0.3123,-0.1164,0.6418,"(0.0, 0.0, 0.0, 0.0, 0.0, 0.0, 0.0, 0.0, 0.0)","b'$VNYMR,-097.353,+005.215,-000.481,+00.3123,-00.1164,+00.6418,+00.100,-02.140,-10.511,-00.015648,-00.000642,-00.287346"
1666974632.3820148,0,1666974632,358012199,IMU1_Frame,0,0,0,,0.031071812605729242,0.03354408101716582,-0.7524355510037933,0.6570769199079559,"(0.0, 0.0, 0.0, 0.0, 0.0, 0.0, 0.0, 0.0, 0.0)",-0.031279,0.00143,-0.289095,"(0.0, 0.0, 0.0, 0.0, 0.0, 0.0, 0.0, 0.0, 0.0)",0.161,-1.77,-10.296,"(0.0, 0.0, 0.0, 0.0, 0.0, 0.0, 0.0, 0.0, 0.0)",0,0,0,,0.3104,-0.1193,0.6484,"(0.0, 0.0, 0.0, 0.0, 0.0, 0.0, 0.0, 0.0, 0.0)","b'$VNYMR,-097.766,+005.212,-000.555,+00.3104,-00.1193,+00.6484,+00.161,-01.770,-10.296,-00.031279,+00.001430,-00.289095"
1666974632.3876271,0,1666974632,387180328,IMU1_Frame,0,0,0,,0.03063521411994539,0.03394153300755075,-0.7547711346152872,0.6543928409942108,"(0.0, 0.0, 0.0, 0.0, 0.0, 0.0, 0.0, 0.0, 0.0)",-0.034298,0.002695,-0.28736,"(0.0, 0.0, 0.0, 0.0, 0.0, 0.0, 0.0, 0.0, 0.0)",0.364,-1.472,-9.479,"(0.0, 0.0, 0.0, 0.0, 0.0, 0.0, 0.0, 0.0, 0.0)",0,0,0,,0.3096,-0.1014,0.6327,"(0.0, 0.0, 0.0, 0.0, 0.0, 0.0, 0.0, 0.0, 0.0)","b'$VNYMR,-098.178,+005.202,-000.641,+00.3096,-00.1014,+00.6327,+00.364,-01.472,-09.479,-00.034298,+00.002695,-00.287360"
1666974632.4302592,0,1666974632,408361911,IMU1_Frame,0,0,0,,0.030107225685601466,0.034264809172621334,-0.7570616800916585,0.6517492542003216,"(0.0, 0.0, 0.0, 0.0, 0.0, 0.0, 0.0, 0.0, 0.0)",-0.038665,-0.023375,-0.279754,"(0.0, 0.0, 0.0, 0.0, 0.0, 0.0, 0.0, 0.0, 0.0)",0.384,-1.453,-9.67,"(0.0, 0.0, 0.0, 0.0, 0.0, 0.0, 0.0, 0.0, 0.0)",0,0,0,,0.3095,-0.1153,0.6494,"(0.0, 0.0, 0.0, 0.0, 0.0, 0.0, 0.0, 0.0, 0.0)","b'$VNYMR,-098.583,+005.178,-000.727,+00.3095,-00.1153,+00.6494,+00.384,-01.453,-09.670,-00.038665,-00.023375,-00.279754"
1666974632.4745405,0,1666974632,434631109,IMU1_Frame,0,0,0,,0.029631835182846615,0.03445301701007179,-0.7593325645942659,0.6491140117955361,"(0.0, 0.0, 0.0, 0.0, 0.0, 0.0, 0.0, 0.0, 0.0)",-0.018154,-0.016355,-0.279515,"(0.0, 0.0, 0.0, 0.0, 0.0, 0.0, 0.0, 0.0, 0.0)",-0.004,-1.016,-9.557,"(0.0, 0.0, 0.0, 0.0, 0.0, 0.0, 0.0, 0.0, 0.0)",0,0,0,,0.3058,-0.1072,0.6436,"(0.0, 0.0, 0.0, 0.0, 0.0, 0.0, 0.0, 0.0, 0.0)","b'$VNYMR,-098.985,+005.148,-000.797,+00.3058,-00.1072,+00.6436,-00.004,-01.016,-09.557,-00.018154,-00.016355,-00.279515"
1666974632.4745886,0,1666974632,459205865,IMU1_Frame,0,0,0,,0.029357697593625703,0.03444997695619395,-0.7615858525877304,0.6464814876065198,"(0.0, 0.0, 0.0, 0.0, 0.0, 0.0, 0.0, 0.0, 0.0)",0.006775,-0.009992,-0.280661,"(0.0, 0.0, 0.0, 0.0, 0.0, 0.0, 0.0, 0.0, 0.0)",0.233,-0.924,-9.877,"(0.0, 0.0, 0.0, 0.0, 0.0, 0.0, 0.0, 0.0, 0.0)",0,0,0,,0.3068,-0.1082,0.6537,"(0.0, 0.0, 0.0, 0.0, 0.0, 0.0, 0.0, 0.0, 0.0)","b'$VNYMR,-099.384,+005.121,-000.835,+00.3068,-00.1082,+00.6537,+00.233,-00.924,-09.877,+00.006775,-00.009992,-00.280661"
1666974632.5180762,0,1666974632,490535497,IMU1_Frame,0,0,0,,0.02922466344037892,0.034308710115286134,-0.7638024985101223,0.6438746576211217,"(0.0, 0.0, 0.0, 0.0, 0.0, 0.0, 0.0, 0.0, 0.0)",0.019598,-0.015287,-0.26999,"(0.0, 0.0, 0.0, 0.0, 0.0, 0.0, 0.0, 0.0, 0.0)",0.124,-0.853,-8.954,"(0.0, 0.0, 0.0, 0.0, 0.0, 0.0, 0.0, 0.0, 0.0)",0,0,0,,0.3039,-0.1141,0.6602,"(0.0, 0.0, 0.0, 0.0, 0.0, 0.0, 0.0, 0.0, 0.0)","b'$VNYMR,-099.777,+005.096,-000.850,+00.3039,-00.1141,+00.6602,+00.124,-00.853,-08.954,+00.019598,-00.015287,-00.269990"
1666974632.5181131,0,1666974632,509662151,IMU1_Frame,0,0,0,,0.02917316201652508,0.03407001820726125,-0.765981097512268,0.641296435925864,"(0.0, 0.0, 0.0, 0.0, 0.0, 0.0, 0.0, 0.0, 0.0)",0.018579,-0.020234,-0.269878,"(0.0, 0.0, 0.0, 0.0, 0.0, 0.0, 0.0, 0.0, 0.0)",0.289,-1.313,-9.968,"(0.0, 0.0, 0.0, 0.0, 0.0, 0.0, 0.0, 0.0, 0.0)",0,0,0,,0.3031,-0.0962,0.6456,"(0.0, 0.0, 0.0, 0.0, 0.0, 0.0, 0.0, 0.0, 0.0)","b'$VNYMR,-100.164,+005.071,-000.850,+00.3031,-00.0962,+00.6456,+00.289,-01.313,-09.968,+00.018579,-00.020234,-00.269878"
1666974632.562126,0,1666974632,534921646,IMU1_Frame,0,0,0,,0.029050342780788052,0.03388872089742838,-0.7681319544135292,0.6387338512941888,"(0.0, 0.0, 0.0, 0.0, 0.0, 0.0, 0.0, 0.0, 0.0)",0.015499,-0.008984,-0.271181,"(0.0, 0.0, 0.0, 0.0, 0.0, 0.0, 0.0, 0.0, 0.0)",0.331,-1.151,-9.878,"(0.0, 0.0, 0.0, 0.0, 0.0, 0.0, 0.0, 0.0, 0.0)",0,0,0,,0.3068,-0.1092,0.6636,"(0.0, 0.0, 0.0, 0.0, 0.0, 0.0, 0.0, 0.0, 0.0)","b'$VNYMR,-100.548,+005.044,-000.860,+00.3068,-00.1092,+00.6636,+00.331,-01.151,-09.878,+00.015499,-00.008984,-00.271181"
1666974632.568088,0,1666974632,567422866,IMU1_Frame,0,0,0,,0.028771167722149008,0.03382852481133124,-0.7702749695907462,0.6361637541065729,"(0.0, 0.0, 0.0, 0.0, 0.0, 0.0, 0.0, 0.0, 0.0)",-0.00324,-0.016327,-0.268235,"(0.0, 0.0, 0.0, 0.0, 0.0, 0.0, 0.0, 0.0, 0.0)",0.593,-1.058,-9.131,"(0.0, 0.0, 0.0, 0.0, 0.0, 0.0, 0.0, 0.0, 0.0)",0,0,0,,0.3059,-0.1072,0.6625,"(0.0, 0.0, 0.0, 0.0, 0.0, 0.0, 0.0, 0.0, 0.0)","b'$VNYMR,-100.933,+005.012,-000.892,+00.3059,-00.1072,+00.6625,+00.593,-01.058,-09.131,-00.003240,-00.016327,-00.268235"
1666974632.6098998,0,1666974632,584629297,IMU1_Frame,0,0,0,,0.028292732305071414,0.033821070063288834,-0.7724140188392681,0.6335868054332087,"(0.0, 0.0, 0.0, 0.0, 0.0, 0.0, 0.0, 0.0, 0.0)",-0.018187,-0.036723,-0.272454,"(0.0, 0.0, 0.0, 0.0, 0.0, 0.0, 0.0, 0.0, 0.0)",0.346,-1.28,-9.304,"(0.0, 0.0, 0.0, 0.0, 0.0, 0.0, 0.0, 0.0, 0.0)",0,0,0,,0.3041,-0.0982,0.6612,"(0.0, 0.0, 0.0, 0.0, 0.0, 0.0, 0.0, 0.0, 0.0)","b'$VNYMR,-101.319,+004.966,-000.943,+00.3041,-00.0982,+00.6612,+00.346,-01.280,-09.304,-00.018187,-00.036723,-00.272454"
1666974632.6099195,0,1666974632,608766555,IMU1_Frame,0,0,0,,0.027787136696890313,0.033782228940021336,-0.7745628989219694,0.6309825288037916,"(0.0, 0.0, 0.0, 0.0, 0.0, 0.0, 0.0, 0.0, 0.0)",-0.007173,-0.032841,-0.274133,"(0.0, 0.0, 0.0, 0.0, 0.0, 0.0, 0.0, 0.0, 0.0)",-0.025,-1.008,-10.046,"(0.0, 0.0, 0.0, 0.0, 0.0, 0.0, 0.0, 0.0, 0.0)",0,0,0,,0.3012,-0.1011,0.6478,"(0.0, 0.0, 0.0, 0.0, 0.0, 0.0, 0.0, 0.0, 0.0)","b'$VNYMR,-101.708,+004.915,-000.993,+00.3012,-00.1011,+00.6478,-00.025,-01.008,-10.046,-00.007173,-00.032841,-00.274133"
1666974632.6540263,0,1666974632,634241104,IMU1_Frame,0,0,0,,0.027401229545835834,0.033641163782648004,-0.7767181880156165,0.6283520518980287,"(0.0, 0.0, 0.0, 0.0, 0.0, 0.0, 0.0, 0.0, 0.0)",0.008587,-0.018456,-0.276103,"(0.0, 0.0, 0.0, 0.0, 0.0, 0.0, 0.0, 0.0, 0.0)",0.174,-1.063,-9.179,"(0.0, 0.0, 0.0, 0.0, 0.0, 0.0, 0.0, 0.0, 0.0)",0,0,0,,0.3032,-0.0902,0.6478,"(0.0, 0.0, 0.0, 0.0, 0.0, 0.0, 0.0, 0.0, 0.0)","b'$VNYMR,-102.099,+004.867,-001.025,+00.3032,-00.0902,+00.6478,+00.174,-01.063,-09.179,+00.008587,-00.018456,-00.276103"
1666974632.6601214,0,1666974632,659616231,IMU1_Frame,0,0,0,,0.027101381686718676,0.033325845791670264,-0.7788835073506046,0.6256959206277128,"(0.0, 0.0, 0.0, 0.0, 0.0, 0.0, 0.0, 0.0, 0.0)",0.022755,-0.02928,-0.274949,"(0.0, 0.0, 0.0, 0.0, 0.0, 0.0, 0.0, 0.0, 0.0)",0.384,-1.057,-9.139,"(0.0, 0.0, 0.0, 0.0, 0.0, 0.0, 0.0, 0.0, 0.0)",0,0,0,,0.306,-0.1052,0.668,"(0.0, 0.0, 0.0, 0.0, 0.0, 0.0, 0.0, 0.0, 0.0)","b'$VNYMR,-102.492,+004.814,-001.035,+00.3060,-00.1052,+00.6680,+00.384,-01.057,-09.139,+00.022755,-00.029280,-00.274949"
1666974632.7019339,0,1666974632,684391975,IMU1_Frame,0,0,0,,0.026907907202754898,0.03286370867659898,-0.7810623000483874,0.6230069218115559,"(0.0, 0.0, 0.0, 0.0, 0.0, 0.0, 0.0, 0.0, 0.0)",0.031107,-0.036135,-0.277362,"(0.0, 0.0, 0.0, 0.0, 0.0, 0.0, 0.0, 0.0, 0.0)",0.12,-1.251,-9.383,"(0.0, 0.0, 0.0, 0.0, 0.0, 0.0, 0.0, 0.0, 0.0)",0,0,0,,0.305,-0.1032,0.6613,"(0.0, 0.0, 0.0, 0.0, 0.0, 0.0, 0.0, 0.0, 0.0)","b'$VNYMR,-102.888,+004.760,-001.024,+00.3050,-00.1032,+00.6613,+00.120,-01.251,-09.383,+00.031107,-00.036135,-00.277362"
1666974632.7459373,0,1666974632,709901094,IMU1_Frame,0,0,0,,0.02686170446894277,0.032298346563888865,-0.7832514866505539,0.6202841077296428,"(0.0, 0.0, 0.0, 0.0, 0.0, 0.0, 0.0, 0.0, 0.0)",0.046797,-0.030591,-0.281763,"(0.0, 0.0, 0.0, 0.0, 0.0, 0.0, 0.0, 0.0, 0.0)",0.109,-1.242,-9.644,"(0.0, 0.0, 0.0, 0.0, 0.0, 0.0, 0.0, 0.0, 0.0)",0,0,0,,0.3041,-0.1051,0.6657,"(0.0, 0.0, 0.0, 0.0, 0.0, 0.0, 0.0, 0.0, 0.0)","b'$VNYMR,-103.287,+004.712,-000.993,+00.3041,-00.1051,+00.6657,+00.109,-01.242,-09.644,+00.046797,-00.030591,-00.281763"
1666974632.745972,0,1666974632,734329700,IMU1_Frame,0,0,0,,0.026864436567835402,0.03169554578234564,-0.7854536909035779,0.6175242455737255,"(0.0, 0.0, 0.0, 0.0, 0.0, 0.0, 0.0, 0.0, 0.0)",0.046072,-0.025648,-0.282113,"(0.0, 0.0, 0.0, 0.0, 0.0, 0.0, 0.0, 0.0, 0.0)",0.015,-1.261,-9.988,"(0.0, 0.0, 0.0, 0.0, 0.0, 0.0, 0.0, 0.0, 0.0)",0,0,0,,0.3013,-0.0931,0.6643,"(0.0, 0.0, 0.0, 0.0, 0.0, 0.0, 0.0, 0.0, 0.0)","b'$VNYMR,-103.690,+004.666,-000.955,+00.3013,-00.0931,+00.6643,+00.015,-01.261,-09.988,+00.046072,-00.025648,-00.282113"
1666974632.7899368,0,1666974632,759563446,IMU1_Frame,0,0,0,,0.02686448766134428,0.03114845291924581,-0.7876538827486423,0.6147433888822382,"(0.0, 0.0, 0.0, 0.0, 0.0, 0.0, 0.0, 0.0, 0.0)",0.039732,-0.020308,-0.285994,"(0.0, 0.0, 0.0, 0.0, 0.0, 0.0, 0.0, 0.0, 0.0)",-0.069,-1.424,-10.522,"(0.0, 0.0, 0.0, 0.0, 0.0, 0.0, 0.0, 0.0, 0.0)",0,0,0,,0.2984,-0.0921,0.6487,"(0.0, 0.0, 0.0, 0.0, 0.0, 0.0, 0.0, 0.0, 0.0)","b'$VNYMR,-104.095,+004.624,-000.922,+00.2984,-00.0921,+00.6487,-00.069,-01.424,-10.522,+00.039732,-00.020308,-00.285994"
1666974632.7899563,0,1666974632,785185813,IMU1_Frame,0,0,0,,0.02684626713169573,0.030720873677760503,-0.7898598540775779,0.6119288494409432,"(0.0, 0.0, 0.0, 0.0, 0.0, 0.0, 0.0, 0.0, 0.0)",0.032654,-0.011574,-0.288159,"(0.0, 0.0, 0.0, 0.0, 0.0, 0.0, 0.0, 0.0, 0.0)",0.138,-1.266,-10.613,"(0.0, 0.0, 0.0, 0.0, 0.0, 0.0, 0.0, 0.0, 0.0)",0,0,0,,0.2976,-0.085,0.6619,"(0.0, 0.0, 0.0, 0.0, 0.0, 0.0, 0.0, 0.0, 0.0)","b'$VNYMR,-104.504,+004.589,-000.901,+00.2976,-00.0850,+00.6619,+00.138,-01.266,-10.613,+00.032654,-00.011574,-00.288159"
1666974632.8343363,0,1666974632,808770656,IMU1_Frame,0,0,0,,0.026793997279737008,0.030391561738186607,-0.792040791315298,0.6091221713068111,"(0.0, 0.0, 0.0, 0.0, 0.0, 0.0, 0.0, 0.0, 0.0)",0.025317,-0.013623,-0.285193,"(0.0, 0.0, 0.0, 0.0, 0.0, 0.0, 0.0, 0.0, 0.0)",0.326,-1.225,-10.082,"(0.0, 0.0, 0.0, 0.0, 0.0, 0.0, 0.0, 0.0, 0.0)",0,0,0,,0.2975,-0.094,0.6564,"(0.0, 0.0, 0.0, 0.0, 0.0, 0.0, 0.0, 0.0, 0.0)","b'$VNYMR,-104.911,+004.558,-000.891,+00.2975,-00.0940,+00.6564,+00.326,-01.225,-10.082,+00.025317,-00.013623,-00.285193"
1666974632.8357925,0,1666974632,835359573,IMU1_Frame,0,0,0,,0.02678494579812949,0.03013254977570214,-0.7941815834666284,0.6063416599616466,"(0.0, 0.0, 0.0, 0.0, 0.0, 0.0, 0.0, 0.0, 0.0)",0.027184,-0.00063,-0.283593,"(0.0, 0.0, 0.0, 0.0, 0.0, 0.0, 0.0, 0.0, 0.0)",0.404,-1.305,-10.475,"(0.0, 0.0, 0.0, 0.0, 0.0, 0.0, 0.0, 0.0, 0.0)",0,0,0,,0.2938,-0.0939,0.6629,"(0.0, 0.0, 0.0, 0.0, 0.0, 0.0, 0.0, 0.0, 0.0)","b'$VNYMR,-105.313,+004.536,-000.884,+00.2938,-00.0939,+00.6629,+00.404,-01.305,-10.475,+00.027184,-00.000630,-00.283593"
1666974632.877937,0,1666974632,860048294,IMU1_Frame,0,0,0,,0.02675756298160109,0.029895756741851763,-0.7962907170318182,0.6035821158061847,"(0.0, 0.0, 0.0, 0.0, 0.0, 0.0, 0.0, 0.0, 0.0)",0.022012,-0.008109,-0.278519,"(0.0, 0.0, 0.0, 0.0, 0.0, 0.0, 0.0, 0.0, 0.0)",0.239,-1.249,-10.024,"(0.0, 0.0, 0.0, 0.0, 0.0, 0.0, 0.0, 0.0, 0.0)",0,0,0,,0.2919,-0.0918,0.6661,"(0.0, 0.0, 0.0, 0.0, 0.0, 0.0, 0.0, 0.0, 0.0)","b'$VNYMR,-105.711,+004.514,-000.880,+00.2919,-00.0918,+00.6661,+00.239,-01.249,-10.024,+00.022012,-00.008109,-00.278519"
1666974632.9231474,0,1666974632,883721828,IMU1_Frame,0,0,0,,0.026727242751373503,0.029704502786863058,-0.7983567869846449,0.6008575019791704,"(0.0, 0.0, 0.0, 0.0, 0.0, 0.0, 0.0, 0.0, 0.0)",0.019364,-0.007347,-0.273433,"(0.0, 0.0, 0.0, 0.0, 0.0, 0.0, 0.0, 0.0, 0.0)",0.22,-1.427,-9.933,"(0.0, 0.0, 0.0, 0.0, 0.0, 0.0, 0.0, 0.0, 0.0)",0,0,0,,0.29,-0.0878,0.6571,"(0.0, 0.0, 0.0, 0.0, 0.0, 0.0, 0.0, 0.0, 0.0)","b'$VNYMR,-106.103,+004.495,-000.880,+00.2900,-00.0878,+00.6571,+00.220,-01.427,-09.933,+00.019364,-00.007347,-00.273433"
1666974632.9231734,0,1666974632,909871101,IMU1_Frame,0,0,0,,0.02661103721254705,0.029583140340156286,-0.8003852588062269,0.5981639641367374,"(0.0, 0.0, 0.0, 0.0, 0.0, 0.0, 0.0, 0.0, 0.0)",0.007806,-0.011521,-0.270179,"(0.0, 0.0, 0.0, 0.0, 0.0, 0.0, 0.0, 0.0, 0.0)",0.341,-1.543,-9.958,"(0.0, 0.0, 0.0, 0.0, 0.0, 0.0, 0.0, 0.0, 0.0)",0,0,0,,0.2891,-0.0967,0.6705,"(0.0, 0.0, 0.0, 0.0, 0.0, 0.0, 0.0, 0.0, 0.0)","b'$VNYMR,-106.490,+004.473,-000.892,+00.2891,-00.0967,+00.6705,+00.341,-01.543,-09.958,+00.007806,-00.011521,-00.270179"
1666974632.9659376,0,1666974632,934504270,IMU1_Frame,0,0,0,,0.026398253730780044,0.02948980835187661,-0.8023993091177741,0.5954736200123847,"(0.0, 0.0, 0.0, 0.0, 0.0, 0.0, 0.0, 0.0, 0.0)",0.001684,-0.015283,-0.272176,"(0.0, 0.0, 0.0, 0.0, 0.0, 0.0, 0.0, 0.0, 0.0)",0.092,-1.588,-9.9,"(0.0, 0.0, 0.0, 0.0, 0.0, 0.0, 0.0, 0.0, 0.0)",0,0,0,,0.2882,-0.0897,0.6692,"(0.0, 0.0, 0.0, 0.0, 0.0, 0.0, 0.0, 0.0, 0.0)","b'$VNYMR,-106.876,+004.444,-000.913,+00.2882,-00.0897,+00.6692,+00.092,-01.588,-09.900,+00.001684,-00.015283,-00.272176"
1666974632.9659576,0,1666974632,958750724,IMU1_Frame,0,0,0,,0.026128822832910105,0.029400938417342815,-0.8043944841796349,0.5927920236127722,"(0.0, 0.0, 0.0, 0.0, 0.0, 0.0, 0.0, 0.0, 0.0)",0.000849,-0.023754,-0.268101,"(0.0, 0.0, 0.0, 0.0, 0.0, 0.0, 0.0, 0.0, 0.0)",0.247,-1.547,-9.722,"(0.0, 0.0, 0.0, 0.0, 0.0, 0.0, 0.0, 0.0, 0.0)",0,0,0,,0.291,-0.0978,0.6739,"(0.0, 0.0, 0.0, 0.0, 0.0, 0.0, 0.0, 0.0, 0.0)","b'$VNYMR,-107.260,+004.410,-000.938,+00.2910,-00.0978,+00.6739,+00.247,-01.547,-09.722,+00.000849,-00.023754,-00.268101"
1666974633.0101023,0,1666974632,984535694,IMU1_Frame,0,0,0,,0.025862350194960915,0.029294986934581387,-0.8063814879888923,0.5901032438579844,"(0.0, 0.0, 0.0, 0.0, 0.0, 0.0, 0.0, 0.0, 0.0)",0.00281,-0.015475,-0.268894,"(0.0, 0.0, 0.0, 0.0, 0.0, 0.0, 0.0, 0.0, 0.0)",0.087,-1.648,-9.823,"(0.0, 0.0, 0.0, 0.0, 0.0, 0.0, 0.0, 0.0, 0.0)",0,0,0,,0.291,-0.0888,0.6683,"(0.0, 0.0, 0.0, 0.0, 0.0, 0.0, 0.0, 0.0, 0.0)","b'$VNYMR,-107.644,+004.375,-000.961,+00.2910,-00.0888,+00.6683,+00.087,-01.648,-09.823,+00.002810,-00.015475,-00.268894"
1666974633.0110612,0,1666974633,10623931,IMU1_Frame,0,0,0,,0.025541853493530497,0.02920571463768675,-0.8083645657072659,0.5874022206814681,"(0.0, 0.0, 0.0, 0.0, 0.0, 0.0, 0.0, 0.0, 0.0)",-0.004018,-0.0265,-0.272815,"(0.0, 0.0, 0.0, 0.0, 0.0, 0.0, 0.0, 0.0, 0.0)",0.252,-1.816,-9.461,"(0.0, 0.0, 0.0, 0.0, 0.0, 0.0, 0.0, 0.0, 0.0)",0,0,0,,0.2901,-0.0779,0.657,"(0.0, 0.0, 0.0, 0.0, 0.0, 0.0, 0.0, 0.0, 0.0)","b'$VNYMR,-108.029,+004.336,-000.989,+00.2901,-00.0779,+00.6570,+00.252,-01.816,-09.461,-00.004018,-00.026500,-00.272815"
1666974633.0538926,0,1666974633,34894704,IMU1_Frame,0,0,0,,0.025195087777015884,0.029140796718365062,-0.8103684584521327,0.5846528739897218,"(0.0, 0.0, 0.0, 0.0, 0.0, 0.0, 0.0, 0.0, 0.0)",-0.003551,-0.023347,-0.275276,"(0.0, 0.0, 0.0, 0.0, 0.0, 0.0, 0.0, 0.0, 0.0)",0.318,-1.459,-9.585,"(0.0, 0.0, 0.0, 0.0, 0.0, 0.0, 0.0, 0.0, 0.0)",0,0,0,,0.2901,-0.0888,0.6671,"(0.0, 0.0, 0.0, 0.0, 0.0, 0.0, 0.0, 0.0, 0.0)","b'$VNYMR,-108.420,+004.296,-001.021,+00.2901,-00.0888,+00.6671,+00.318,-01.459,-09.585,-00.003551,-00.023347,-00.275276"
1666974633.0979393,0,1666974633,59329509,IMU1_Frame,0,0,0,,0.02480655153768891,0.029122271456280033,-0.8123817955673828,0.5818696989333176,"(0.0, 0.0, 0.0, 0.0, 0.0, 0.0, 0.0, 0.0, 0.0)",-0.012223,-0.025598,-0.279156,"(0.0, 0.0, 0.0, 0.0, 0.0, 0.0, 0.0, 0.0, 0.0)",0.252,-1.408,-9.449,"(0.0, 0.0, 0.0, 0.0, 0.0, 0.0, 0.0, 0.0, 0.0)",0,0,0,,0.2921,-0.0739,0.6659,"(0.0, 0.0, 0.0, 0.0, 0.0, 0.0, 0.0, 0.0, 0.0)","b'$VNYMR,-108.815,+004.255,-001.060,+00.2921,-00.0739,+00.6659,+00.252,-01.408,-09.449,-00.012223,-00.025598,-00.279156"
1666974633.0979578,0,1666974633,84646224,IMU1_Frame,0,0,0,,0.024376462049926488,0.029150833183169925,-0.8143992071413487,0.5790595378976138,"(0.0, 0.0, 0.0, 0.0, 0.0, 0.0, 0.0, 0.0, 0.0)",-0.018068,-0.02429,-0.279238,"(0.0, 0.0, 0.0, 0.0, 0.0, 0.0, 0.0, 0.0, 0.0)",0.31,-1.623,-9.522,"(0.0, 0.0, 0.0, 0.0, 0.0, 0.0, 0.0, 0.0, 0.0)",0,0,0,,0.292,-0.0879,0.665,"(0.0, 0.0, 0.0, 0.0, 0.0, 0.0, 0.0, 0.0, 0.0)","b'$VNYMR,-109.213,+004.213,-001.106,+00.2920,-00.0879,+00.6650,+00.310,-01.623,-09.522,-00.018068,-00.024290,-00.279238"
1666974633.1419027,0,1666974633,108722686,IMU1_Frame,0,0,0,,0.02388862676081368,0.02923576549041803,-0.8164302950649737,0.5762084491117706,"(0.0, 0.0, 0.0, 0.0, 0.0, 0.0, 0.0, 0.0, 0.0)",-0.020364,-0.028071,-0.282855,"(0.0, 0.0, 0.0, 0.0, 0.0, 0.0, 0.0, 0.0, 0.0)",-0.035,-1.352,-9.806,"(0.0, 0.0, 0.0, 0.0, 0.0, 0.0, 0.0, 0.0, 0.0)",0,0,0,,0.2921,-0.0819,0.6716,"(0.0, 0.0, 0.0, 0.0, 0.0, 0.0, 0.0, 0.0, 0.0)","b'$VNYMR,-109.616,+004.169,-001.161,+00.2921,-00.0819,+00.6716,-00.035,-01.352,-09.806,-00.020364,-00.028071,-00.282855"
1666974633.1419213,0,1666974633,133255481,IMU1_Frame,0,0,0,,0.023433641066550437,0.029324789824965523,-0.8184608911983363,0.5733347109210384,"(0.0, 0.0, 0.0, 0.0, 0.0, 0.0, 0.0, 0.0, 0.0)",-0.013402,-0.018091,-0.285301,"(0.0, 0.0, 0.0, 0.0, 0.0, 0.0, 0.0, 0.0, 0.0)",0.162,-1.093,-9.604,"(0.0, 0.0, 0.0, 0.0, 0.0, 0.0, 0.0, 0.0, 0.0)",0,0,0,,0.2882,-0.0857,0.6681,"(0.0, 0.0, 0.0, 0.0, 0.0, 0.0, 0.0, 0.0, 0.0)","b'$VNYMR,-110.021,+004.128,-001.214,+00.2882,-00.0857,+00.6681,+00.162,-01.093,-09.604,-00.013402,-00.018091,-00.285301"
1666974633.1860275,0,1666974633,158985137,IMU1_Frame,0,0,0,,0.023033474777925892,0.02937026062857407,-0.820477733374096,0.5704587065402456,"(0.0, 0.0, 0.0, 0.0, 0.0, 0.0, 0.0, 0.0, 0.0)",-0.009959,-0.019365,-0.282589,"(0.0, 0.0, 0.0, 0.0, 0.0, 0.0, 0.0, 0.0, 0.0)",0.231,-0.909,-9.51,"(0.0, 0.0, 0.0, 0.0, 0.0, 0.0, 0.0, 0.0, 0.0)",0,0,0,,0.2863,-0.0778,0.6436,"(0.0, 0.0, 0.0, 0.0, 0.0, 0.0, 0.0, 0.0, 0.0)","b'$VNYMR,-110.425,+004.089,-001.259,+00.2863,-00.0778,+00.6436,+00.231,-00.909,-09.510,-00.009959,-00.019365,-00.282589"
1666974633.186048,0,1666974633,184771060,IMU1_Frame,0,0,0,,0.022740627076043036,0.029355888507431274,-0.8224710131038404,0.5675936295397175,"(0.0, 0.0, 0.0, 0.0, 0.0, 0.0, 0.0, 0.0, 0.0)",-0.000488,-0.014696,-0.279703,"(0.0, 0.0, 0.0, 0.0, 0.0, 0.0, 0.0, 0.0, 0.0)",0.242,-0.845,-10.074,"(0.0, 0.0, 0.0, 0.0, 0.0, 0.0, 0.0, 0.0, 0.0)",0,0,0,,0.2854,-0.0817,0.6546,"(0.0, 0.0, 0.0, 0.0, 0.0, 0.0, 0.0, 0.0, 0.0)","b'$VNYMR,-110.826,+004.056,-001.291,+00.2854,-00.0817,+00.6546,+00.242,-00.845,-10.074,-00.000488,-00.014696,-00.279703"
1666974633.2302856,0,1666974633,209081888,IMU1_Frame,0,0,0,,0.022588306291304313,0.02926178232743094,-0.8244364043489534,0.5647460771869787,"(0.0, 0.0, 0.0, 0.0, 0.0, 0.0, 0.0, 0.0, 0.0)",0.009503,-0.011537,-0.27735,"(0.0, 0.0, 0.0, 0.0, 0.0, 0.0, 0.0, 0.0, 0.0)",0.161,-0.763,-9.852,"(0.0, 0.0, 0.0, 0.0, 0.0, 0.0, 0.0, 0.0, 0.0)",0,0,0,,0.2864,-0.0827,0.6658,"(0.0, 0.0, 0.0, 0.0, 0.0, 0.0, 0.0, 0.0, 0.0)","b'$VNYMR,-111.223,+004.031,-001.306,+00.2864,-00.0827,+00.6658,+00.161,-00.763,-09.852,+00.009503,-00.011537,-00.277350"
1666974633.234474,0,1666974633,233865261,IMU1_Frame,0,0,0,,0.022512767687669383,0.029085914012348606,-0.8263749884829369,0.5619177549312118,"(0.0, 0.0, 0.0, 0.0, 0.0, 0.0, 0.0, 0.0, 0.0)",0.020446,-0.006105,-0.272798,"(0.0, 0.0, 0.0, 0.0, 0.0, 0.0, 0.0, 0.0, 0.0)",0.212,-0.571,-9.929,"(0.0, 0.0, 0.0, 0.0, 0.0, 0.0, 0.0, 0.0, 0.0)",0,0,0,,0.2845,-0.0787,0.6634,"(0.0, 0.0, 0.0, 0.0, 0.0, 0.0, 0.0, 0.0, 0.0)","b'$VNYMR,-111.616,+004.008,-001.308,+00.2845,-00.0787,+00.6634,+00.212,-00.571,-09.929,+00.020446,-00.006105,-00.272798"
1666974633.2794344,0,1666974633,268567562,IMU1_Frame,0,0,0,,0.022483491179659587,0.02880856703806061,-0.8282735740021535,0.5591309736540152,"(0.0, 0.0, 0.0, 0.0, 0.0, 0.0, 0.0, 0.0, 0.0)",0.026871,-0.011303,-0.269945,"(0.0, 0.0, 0.0, 0.0, 0.0, 0.0, 0.0, 0.0, 0.0)",0.335,-0.526,-9.788,"(0.0, 0.0, 0.0, 0.0, 0.0, 0.0, 0.0, 0.0, 0.0)",0,0,0,,0.2836,-0.0816,0.6678,"(0.0, 0.0, 0.0, 0.0, 0.0, 0.0, 0.0, 0.0, 0.0)","b'$VNYMR,-112.002,+003.983,-001.297,+00.2836,-00.0816,+00.6678,+00.335,-00.526,-09.788,+00.026871,-00.011303,-00.269945"
1666974633.3221378,0,1666974633,283776283,IMU1_Frame,0,0,0,,0.022458069629204998,0.028443866670951435,-0.8301276093751206,0.5563944048159379,"(0.0, 0.0, 0.0, 0.0, 0.0, 0.0, 0.0, 0.0, 0.0)",0.033315,-0.016235,-0.26028,"(0.0, 0.0, 0.0, 0.0, 0.0, 0.0, 0.0, 0.0, 0.0)",0.23,-0.411,-10.116,"(0.0, 0.0, 0.0, 0.0, 0.0, 0.0, 0.0, 0.0, 0.0)",0,0,0,,0.2789,-0.0636,0.642,"(0.0, 0.0, 0.0, 0.0, 0.0, 0.0, 0.0, 0.0, 0.0)","b'$VNYMR,-112.380,+003.953,-001.277,+00.2789,-00.0636,+00.6420,+00.230,-00.411,-10.116,+00.033315,-00.016235,-00.260280"
1666974633.322158,0,1666974633,309438467,IMU1_Frame,0,0,0,,0.022431171588176854,0.02806166821320956,-0.8319394396047702,0.5537022251611188,"(0.0, 0.0, 0.0, 0.0, 0.0, 0.0, 0.0, 0.0, 0.0)",0.029753,-0.016398,-0.258746,"(0.0, 0.0, 0.0, 0.0, 0.0, 0.0, 0.0, 0.0, 0.0)",0.128,-0.827,-10.102,"(0.0, 0.0, 0.0, 0.0, 0.0, 0.0, 0.0, 0.0, 0.0)",0,0,0,,0.2798,-0.0716,0.6454,"(0.0, 0.0, 0.0, 0.0, 0.0, 0.0, 0.0, 0.0, 0.0)","b'$VNYMR,-112.751,+003.922,-001.255,+00.2798,-00.0716,+00.6454,+00.128,-00.827,-10.102,+00.029753,-00.016398,-00.258746"
1666974633.3659165,0,1666974633,334943056,IMU1_Frame,0,0,0,,0.022393568871762984,0.027739175054727123,-0.8337111898687671,0.5510487438766858,"(0.0, 0.0, 0.0, 0.0, 0.0, 0.0, 0.0, 0.0, 0.0)",0.026804,-0.01135,-0.257037,"(0.0, 0.0, 0.0, 0.0, 0.0, 0.0, 0.0, 0.0, 0.0)",0.093,-0.962,-9.981,"(0.0, 0.0, 0.0, 0.0, 0.0, 0.0, 0.0, 0.0, 0.0)",0,0,0,,0.2799,-0.0666,0.6653,"(0.0, 0.0, 0.0, 0.0, 0.0, 0.0, 0.0, 0.0, 0.0)","b'$VNYMR,-113.116,+003.894,-001.239,+00.2799,-00.0666,+00.6653,+00.093,-00.962,-09.981,+00.026804,-00.011350,-00.257037"
1666974633.3659353,0,1666974633,359790802,IMU1_Frame,0,0,0,,0.022322660504176594,0.027512329178688802,-0.8354564871445921,0.5484133738879797,"(0.0, 0.0, 0.0, 0.0, 0.0, 0.0, 0.0, 0.0, 0.0)",0.018096,-0.013369,-0.252417,"(0.0, 0.0, 0.0, 0.0, 0.0, 0.0, 0.0, 0.0, 0.0)",-0.037,-1.085,-10.192,"(0.0, 0.0, 0.0, 0.0, 0.0, 0.0, 0.0, 0.0, 0.0)",0,0,0,,0.277,-0.0784,0.6697,"(0.0, 0.0, 0.0, 0.0, 0.0, 0.0, 0.0, 0.0, 0.0)","b'$VNYMR,-113.478,+003.869,-001.234,+00.2770,-00.0784,+00.6697,-00.037,-01.085,-10.192,+00.018096,-00.013369,-00.252417"
1666974633.410604,0,1666974633,386279582,IMU1_Frame,0,0,0,,0.022277325623918882,0.027324801327280455,-0.8371866803271154,0.545779752536071,"(0.0, 0.0, 0.0, 0.0, 0.0, 0.0, 0.0, 0.0, 0.0)",0.01613,-0.003453,-0.253371,"(0.0, 0.0, 0.0, 0.0, 0.0, 0.0, 0.0, 0.0, 0.0)",0.127,-1.079,-10.394,"(0.0, 0.0, 0.0, 0.0, 0.0, 0.0, 0.0, 0.0, 0.0)",0,0,0,,0.28,-0.0566,0.6685,"(0.0, 0.0, 0.0, 0.0, 0.0, 0.0, 0.0, 0.0, 0.0)","b'$VNYMR,-113.839,+003.849,-001.231,+00.2800,-00.0566,+00.6685,+00.127,-01.079,-10.394,+00.016130,-00.003453,-00.253371"
1666974633.4106436,0,1666974633,408437013,IMU1_Frame,0,0,0,,0.022262054647197875,0.027105962408130683,-0.8389094283290546,0.5431396126093484,"(0.0, 0.0, 0.0, 0.0, 0.0, 0.0, 0.0, 0.0, 0.0)",0.022278,-0.007798,-0.252337,"(0.0, 0.0, 0.0, 0.0, 0.0, 0.0, 0.0, 0.0, 0.0)",0.359,-1.248,-9.798,"(0.0, 0.0, 0.0, 0.0, 0.0, 0.0, 0.0, 0.0, 0.0)",0,0,0,,0.278,-0.0636,0.6552,"(0.0, 0.0, 0.0, 0.0, 0.0, 0.0, 0.0, 0.0, 0.0)","b'$VNYMR,-114.200,+003.830,-001.223,+00.2780,-00.0636,+00.6552,+00.359,-01.248,-09.798,+00.022278,-00.007798,-00.252337"
1666974633.4539242,0,1666974633,434733152,IMU1_Frame,0,0,0,,0.022297743964018728,0.026806601905257438,-0.8406311044627063,0.540484563071156,"(0.0, 0.0, 0.0, 0.0, 0.0, 0.0, 0.0, 0.0, 0.0)",0.029527,-0.011073,-0.254498,"(0.0, 0.0, 0.0, 0.0, 0.0, 0.0, 0.0, 0.0, 0.0)",0.401,-1.535,-9.686,"(0.0, 0.0, 0.0, 0.0, 0.0, 0.0, 0.0, 0.0, 0.0)",0,0,0,,0.2781,-0.0616,0.6618,"(0.0, 0.0, 0.0, 0.0, 0.0, 0.0, 0.0, 0.0, 0.0)","b'$VNYMR,-114.562,+003.811,-001.204,+00.2781,-00.0616,+00.6618,+00.401,-01.535,-09.686,+00.029527,-00.011073,-00.254498"
1666974633.4597733,0,1666974633,459222316,IMU1_Frame,0,0,0,,0.022328769978237635,0.026431608096647886,-0.8423661497721279,0.5377937019366859,"(0.0, 0.0, 0.0, 0.0, 0.0, 0.0, 0.0, 0.0, 0.0)",0.033162,-0.01023,-0.258877,"(0.0, 0.0, 0.0, 0.0, 0.0, 0.0, 0.0, 0.0, 0.0)",0.232,-1.495,-9.942,"(0.0, 0.0, 0.0, 0.0, 0.0, 0.0, 0.0, 0.0, 0.0)",0,0,0,,0.278,-0.0646,0.6597,"(0.0, 0.0, 0.0, 0.0, 0.0, 0.0, 0.0, 0.0, 0.0)","b'$VNYMR,-114.928,+003.787,-001.178,+00.2780,-00.0646,+00.6597,+00.232,-01.495,-09.942,+00.033162,-00.010230,-00.258877"
1666974633.502074,0,1666974633,483878612,IMU1_Frame,0,0,0,,0.022367144886124016,0.02600974621221573,-0.8441128416553475,0.535067018684719,"(0.0, 0.0, 0.0, 0.0, 0.0, 0.0, 0.0, 0.0, 0.0)",0.034481,-0.012464,-0.25985,"(0.0, 0.0, 0.0, 0.0, 0.0, 0.0, 0.0, 0.0, 0.0)",0.252,-1.485,-9.709,"(0.0, 0.0, 0.0, 0.0, 0.0, 0.0, 0.0, 0.0, 0.0)",0,0,0,,0.2819,-0.0607,0.672,"(0.0, 0.0, 0.0, 0.0, 0.0, 0.0, 0.0, 0.0, 0.0)","b'$VNYMR,-115.298,+003.761,-001.147,+00.2819,-00.0607,+00.6720,+00.252,-01.485,-09.709,+00.034481,-00.012464,-00.259850"
1666974633.546035,0,1666974633,509083032,IMU1_Frame,0,0,0,,0.022353061787234316,0.025586068452760694,-0.8458698774959392,0.5323061563375644,"(0.0, 0.0, 0.0, 0.0, 0.0, 0.0, 0.0, 0.0, 0.0)",0.031186,-0.01659,-0.263054,"(0.0, 0.0, 0.0, 0.0, 0.0, 0.0, 0.0, 0.0, 0.0)",0.247,-1.589,-9.513,"(0.0, 0.0, 0.0, 0.0, 0.0, 0.0, 0.0, 0.0, 0.0)",0,0,0,,0.2799,-0.0696,0.6753,"(0.0, 0.0, 0.0, 0.0, 0.0, 0.0, 0.0, 0.0, 0.0)","b'$VNYMR,-115.672,+003.730,-001.119,+00.2799,-00.0696,+00.6753,+00.247,-01.589,-09.513,+00.031186,-00.016590,-00.263054"
1666974633.5460544,0,1666974633,535454988,IMU1_Frame,0,0,0,,0.022271479606943083,0.0252343049163462,-0.8476297108729313,0.5295196731916364,"(0.0, 0.0, 0.0, 0.0, 0.0, 0.0, 0.0, 0.0, 0.0)",0.022569,-0.01884,-0.26578,"(0.0, 0.0, 0.0, 0.0, 0.0, 0.0, 0.0, 0.0, 0.0)",0.028,-1.672,-9.982,"(0.0, 0.0, 0.0, 0.0, 0.0, 0.0, 0.0, 0.0, 0.0)",0,0,0,,0.2782,-0.0477,0.6551,"(0.0, 0.0, 0.0, 0.0, 0.0, 0.0, 0.0, 0.0, 0.0)","b'$VNYMR,-116.049,+003.697,-001.102,+00.2782,-00.0477,+00.6551,+00.028,-01.672,-09.982,+00.022569,-00.018840,-00.265780"
1666974633.5901363,0,1666974633,565865516,IMU1_Frame,0,0,0,,0.022159862048008065,0.025028533607851032,-0.849398041443333,0.5266929657890675,"(0.0, 0.0, 0.0, 0.0, 0.0, 0.0, 0.0, 0.0, 0.0)",0.012197,-0.014938,-0.267799,"(0.0, 0.0, 0.0, 0.0, 0.0, 0.0, 0.0, 0.0, 0.0)",0.223,-1.778,-9.521,"(0.0, 0.0, 0.0, 0.0, 0.0, 0.0, 0.0, 0.0, 0.0)",0,0,0,,0.2771,-0.0576,0.6529,"(0.0, 0.0, 0.0, 0.0, 0.0, 0.0, 0.0, 0.0, 0.0)","b'$VNYMR,-116.431,+003.670,-001.101,+00.2771,-00.0576,+00.6529,+00.223,-01.778,-09.521,+00.012197,-00.014938,-00.267799"
1666974633.5901573,0,1666974633,585247993,IMU1_Frame,0,0,0,,0.02197534044716682,0.024973855796433422,-0.8511567778846182,0.523856402461557,"(0.0, 0.0, 0.0, 0.0, 0.0, 0.0, 0.0, 0.0, 0.0)",-0.001216,-0.006601,-0.27081,"(0.0, 0.0, 0.0, 0.0, 0.0, 0.0, 0.0, 0.0, 0.0)",0.288,-1.606,-9.722,"(0.0, 0.0, 0.0, 0.0, 0.0, 0.0, 0.0, 0.0, 0.0)",0,0,0,,0.2771,-0.0655,0.6685,"(0.0, 0.0, 0.0, 0.0, 0.0, 0.0, 0.0, 0.0, 0.0)","b'$VNYMR,-116.814,+003.645,-001.119,+00.2771,-00.0655,+00.6685,+00.288,-01.606,-09.722,-00.001216,-00.006601,-00.270810"
1666974633.6339355,0,1666974633,609654426,IMU1_Frame,0,0,0,,0.0217177771499497,0.025090430414491507,-0.8529051372679273,0.5210102065020022,"(0.0, 0.0, 0.0, 0.0, 0.0, 0.0, 0.0, 0.0, 0.0)",-0.017528,-0.010479,-0.268047,"(0.0, 0.0, 0.0, 0.0, 0.0, 0.0, 0.0, 0.0, 0.0)",0.287,-1.572,-9.681,"(0.0, 0.0, 0.0, 0.0, 0.0, 0.0, 0.0, 0.0, 0.0)",0,0,0,,0.279,-0.0666,0.6664,"(0.0, 0.0, 0.0, 0.0, 0.0, 0.0, 0.0, 0.0, 0.0)","b'$VNYMR,-117.198,+003.623,-001.158,+00.2790,-00.0666,+00.6664,+00.287,-01.572,-09.681,-00.017528,-00.010479,-00.268047"
1666974633.6353502,0,1666974633,634903907,IMU1_Frame,0,0,0,,0.021455600217271466,0.02536936647505148,-0.8546288008978034,0.5181753227817337,"(0.0, 0.0, 0.0, 0.0, 0.0, 0.0, 0.0, 0.0, 0.0)",-0.024117,0.006278,-0.269851,"(0.0, 0.0, 0.0, 0.0, 0.0, 0.0, 0.0, 0.0, 0.0)",0.188,-1.447,-10.351,"(0.0, 0.0, 0.0, 0.0, 0.0, 0.0, 0.0, 0.0, 0.0)",0,0,0,,0.2771,-0.0695,0.6696,"(0.0, 0.0, 0.0, 0.0, 0.0, 0.0, 0.0, 0.0, 0.0)","b'$VNYMR,-117.580,+003.610,-001.213,+00.2771,-00.0695,+00.6696,+00.188,-01.447,-10.351,-00.024117,+00.006278,-00.269851"
1666974633.678102,0,1666974633,659122228,IMU1_Frame,0,0,0,,0.021214465591871783,0.02570304472561858,-0.856331575814384,0.5153499123942277,"(0.0, 0.0, 0.0, 0.0, 0.0, 0.0, 0.0, 0.0, 0.0)",-0.025932,0.002778,-0.26562,"(0.0, 0.0, 0.0, 0.0, 0.0, 0.0, 0.0, 0.0, 0.0)",-0.018,-1.279,-10.092,"(0.0, 0.0, 0.0, 0.0, 0.0, 0.0, 0.0, 0.0, 0.0)",0,0,0,,0.2752,-0.0585,0.6506,"(0.0, 0.0, 0.0, 0.0, 0.0, 0.0, 0.0, 0.0, 0.0)","b'$VNYMR,-117.960,+003.602,-001.272,+00.2752,-00.0585,+00.6506,-00.018,-01.279,-10.092,-00.025932,+00.002778,-00.265620"
1666974633.7234087,0,1666974633,685606479,IMU1_Frame,0,0,0,,0.021057158674150697,0.026037625745519072,-0.8580057642272761,0.5125473116375462,"(0.0, 0.0, 0.0, 0.0, 0.0, 0.0, 0.0, 0.0, 0.0)",-0.020754,0.002646,-0.260424,"(0.0, 0.0, 0.0, 0.0, 0.0, 0.0, 0.0, 0.0, 0.0)",0.103,-1.029,-9.654,"(0.0, 0.0, 0.0, 0.0, 0.0, 0.0, 0.0, 0.0, 0.0)",0,0,0,,0.2724,-0.0554,0.6571,"(0.0, 0.0, 0.0, 0.0, 0.0, 0.0, 0.0, 0.0, 0.0)","b'$VNYMR,-118.336,+003.602,-001.326,+00.2724,-00.0554,+00.6571,+00.103,-01.029,-09.654,-00.020754,+00.002646,-00.260424"
1666974633.7234268,0,1666974633,709959983,IMU1_Frame,0,0,0,,0.021002364612343,0.026323181389618876,-0.8596444013783268,0.5097818101708983,"(0.0, 0.0, 0.0, 0.0, 0.0, 0.0, 0.0, 0.0, 0.0)",-0.009314,0.012468,-0.258989,"(0.0, 0.0, 0.0, 0.0, 0.0, 0.0, 0.0, 0.0, 0.0)",0.014,-0.934,-9.955,"(0.0, 0.0, 0.0, 0.0, 0.0, 0.0, 0.0, 0.0, 0.0)",0,0,0,,0.2714,-0.0644,0.6627,"(0.0, 0.0, 0.0, 0.0, 0.0, 0.0, 0.0, 0.0, 0.0)","b'$VNYMR,-118.706,+003.609,-001.369,+00.2714,-00.0644,+00.6627,+00.014,-00.934,-09.955,-00.009314,+00.012468,-00.258989"
1666974633.765929,0,1666974633,736027717,IMU1_Frame,0,0,0,,0.02103367127862564,0.026517751845628164,-0.8612674986805045,0.5070233616178093,"(0.0, 0.0, 0.0, 0.0, 0.0, 0.0, 0.0, 0.0, 0.0)",0.000654,0.014456,-0.256373,"(0.0, 0.0, 0.0, 0.0, 0.0, 0.0, 0.0, 0.0, 0.0)",0.332,-0.841,-9.806,"(0.0, 0.0, 0.0, 0.0, 0.0, 0.0, 0.0, 0.0, 0.0)",0,0,0,,0.2706,-0.0584,0.6659,"(0.0, 0.0, 0.0, 0.0, 0.0, 0.0, 0.0, 0.0, 0.0)","b'$VNYMR,-119.074,+003.619,-001.398,+00.2706,-00.0584,+00.6659,+00.332,-00.841,-09.806,+00.000654,+00.014456,-00.256373"
1666974633.7659495,0,1666974633,760096311,IMU1_Frame,0,0,0,,0.021134887132756384,0.026611913450398296,-0.8628714231643142,0.5042797137450458,"(0.0, 0.0, 0.0, 0.0, 0.0, 0.0, 0.0, 0.0, 0.0)",0.008755,0.016991,-0.256323,"(0.0, 0.0, 0.0, 0.0, 0.0, 0.0, 0.0, 0.0, 0.0)",0.498,-0.829,-9.97,"(0.0, 0.0, 0.0, 0.0, 0.0, 0.0, 0.0, 0.0, 0.0)",0,0,0,,0.2678,-0.0563,0.6669,"(0.0, 0.0, 0.0, 0.0, 0.0, 0.0, 0.0, 0.0, 0.0)","b'$VNYMR,-119.439,+003.630,-001.413,+00.2678,-00.0563,+00.6669,+00.498,-00.829,-09.970,+00.008755,+00.016991,-00.256323"
1666974633.8100624,0,1666974633,788372755,IMU1_Frame,0,0,0,,0.021244383603844414,0.02658875940395749,-0.8644755028411372,0.5015215040516351,"(0.0, 0.0, 0.0, 0.0, 0.0, 0.0, 0.0, 0.0, 0.0)",0.014502,0.009652,-0.257689,"(0.0, 0.0, 0.0, 0.0, 0.0, 0.0, 0.0, 0.0, 0.0)",0.505,-0.909,-9.865,"(0.0, 0.0, 0.0, 0.0, 0.0, 0.0, 0.0, 0.0, 0.0)",0,0,0,,0.2659,-0.0523,0.659,"(0.0, 0.0, 0.0, 0.0, 0.0, 0.0, 0.0, 0.0, 0.0)","b'$VNYMR,-119.805,+003.635,-001.416,+00.2659,-00.0523,+00.6590,+00.505,-00.909,-09.865,+00.014502,+00.009652,-00.257689"
1666974633.8100815,0,1666974633,808243751,IMU1_Frame,0,0,0,,0.021323463900798773,0.02642629739270345,-0.8660854702251835,0.4987413347199195,"(0.0, 0.0, 0.0, 0.0, 0.0, 0.0, 0.0, 0.0, 0.0)",0.025154,0.000516,-0.261379,"(0.0, 0.0, 0.0, 0.0, 0.0, 0.0, 0.0, 0.0, 0.0)",0.257,-0.787,-9.741,"(0.0, 0.0, 0.0, 0.0, 0.0, 0.0, 0.0, 0.0, 0.0)",0,0,0,,0.2659,-0.0463,0.6578,"(0.0, 0.0, 0.0, 0.0, 0.0, 0.0, 0.0, 0.0, 0.0)","b'$VNYMR,-120.173,+003.629,-001.407,+00.2659,-00.0463,+00.6578,+00.257,-00.787,-09.741,+00.025154,+00.000516,-00.261379"
1666974633.8541567,0,1666974633,835606098,IMU1_Frame,0,0,0,,0.021400681184532522,0.026090721801116327,-0.8677149239861265,0.4959154119126423,"(0.0, 0.0, 0.0, 0.0, 0.0, 0.0, 0.0, 0.0, 0.0)",0.04109,-0.00673,-0.262327,"(0.0, 0.0, 0.0, 0.0, 0.0, 0.0, 0.0, 0.0, 0.0)",0.187,-0.695,-9.772,"(0.0, 0.0, 0.0, 0.0, 0.0, 0.0, 0.0, 0.0, 0.0)",0,0,0,,0.2659,-0.0562,0.6756,"(0.0, 0.0, 0.0, 0.0, 0.0, 0.0, 0.0, 0.0, 0.0)","b'$VNYMR,-120.546,+003.613,-001.381,+00.2659,-00.0562,+00.6756,+00.187,-00.695,-09.772,+00.041090,-00.006730,-00.262327"
1666974633.8596978,0,1666974633,859202861,IMU1_Frame,0,0,0,,0.02145336499831491,0.0256008800210447,-0.8693542832877728,0.49305930495387695,"(0.0, 0.0, 0.0, 0.0, 0.0, 0.0, 0.0, 0.0, 0.0)",0.051045,-0.013791,-0.266968,"(0.0, 0.0, 0.0, 0.0, 0.0, 0.0, 0.0, 0.0, 0.0)",0.057,-0.816,-9.736,"(0.0, 0.0, 0.0, 0.0, 0.0, 0.0, 0.0, 0.0, 0.0)",0,0,0,,0.2669,-0.0532,0.679,"(0.0, 0.0, 0.0, 0.0, 0.0, 0.0, 0.0, 0.0, 0.0)","b'$VNYMR,-120.922,+003.586,-001.341,+00.2669,-00.0532,+00.6790,+00.057,-00.816,-09.736,+00.051045,-00.013791,-00.266968"
1666974633.9021716,0,1666974633,887165546,IMU1_Frame,0,0,0,,0.02145356424854645,0.025021890021216693,-0.8710052724771513,0.49016677255583435,"(0.0, 0.0, 0.0, 0.0, 0.0, 0.0, 0.0, 0.0, 0.0)",0.052917,-0.017925,-0.267371,"(0.0, 0.0, 0.0, 0.0, 0.0, 0.0, 0.0, 0.0, 0.0)",-0.022,-0.939,-10.106,"(0.0, 0.0, 0.0, 0.0, 0.0, 0.0, 0.0, 0.0, 0.0)",0,0,0,,0.265,-0.0522,0.6689,"(0.0, 0.0, 0.0, 0.0, 0.0, 0.0, 0.0, 0.0, 0.0)","b'$VNYMR,-121.302,+003.549,-001.295,+00.2650,-00.0522,+00.6689,-00.022,-00.939,-10.106,+00.052917,-00.017925,-00.267371"
1666974633.9466403,0,1666974633,911582946,IMU1_Frame,0,0,0,,0.02137578136502131,0.0244513306810401,-0.872651423052494,0.4872624572480607,"(0.0, 0.0, 0.0, 0.0, 0.0, 0.0, 0.0, 0.0, 0.0)",0.041047,-0.019921,-0.270404,"(0.0, 0.0, 0.0, 0.0, 0.0, 0.0, 0.0, 0.0, 0.0)",-0.164,-1.18,-9.991,"(0.0, 0.0, 0.0, 0.0, 0.0, 0.0, 0.0, 0.0, 0.0)",0,0,0,,0.2632,-0.0432,0.6621,"(0.0, 0.0, 0.0, 0.0, 0.0, 0.0, 0.0, 0.0, 0.0)","b'$VNYMR,-121.683,+003.505,-001.254,+00.2632,-00.0432,+00.6621,-00.164,-01.180,-09.991,+00.041047,-00.019921,-00.270404"
1666974633.9901822,0,1666974633,942361354,IMU1_Frame,0,0,0,,0.02125557658883323,0.023969702508859735,-0.8742849432958132,0.48435471686745235,"(0.0, 0.0, 0.0, 0.0, 0.0, 0.0, 0.0, 0.0, 0.0)",0.031643,-0.017495,-0.267746,"(0.0, 0.0, 0.0, 0.0, 0.0, 0.0, 0.0, 0.0, 0.0)",-0.105,-1.413,-9.913,"(0.0, 0.0, 0.0, 0.0, 0.0, 0.0, 0.0, 0.0, 0.0)",0,0,0,,0.265,-0.0443,0.6622,"(0.0, 0.0, 0.0, 0.0, 0.0, 0.0, 0.0, 0.0, 0.0)","b'$VNYMR,-122.064,+003.462,-001.224,+00.2650,-00.0443,+00.6622,-00.105,-01.413,-09.913,+00.031643,-00.017495,-00.267746"
1666974633.9902,0,1666974633,960843324,IMU1_Frame,0,0,0,,0.02106532086672766,0.0235925044331253,-0.8758932883956325,0.4814671259129125,"(0.0, 0.0, 0.0, 0.0, 0.0, 0.0, 0.0, 0.0, 0.0)",0.021444,-0.019519,-0.265016,"(0.0, 0.0, 0.0, 0.0, 0.0, 0.0, 0.0, 0.0, 0.0)",-0.061,-1.379,-10.076,"(0.0, 0.0, 0.0, 0.0, 0.0, 0.0, 0.0, 0.0, 0.0)",0,0,0,,0.267,-0.0512,0.6801,"(0.0, 0.0, 0.0, 0.0, 0.0, 0.0, 0.0, 0.0, 0.0)","b'$VNYMR,-122.442,+003.418,-001.208,+00.2670,-00.0512,+00.6801,-00.061,-01.379,-10.076,+00.021444,-00.019519,-00.265016"
1666974633.9902236,0,1666974633,984736442,IMU1_Frame,0,0,0,,0.020916080772144408,0.023300856043544753,-0.8774757267134472,0.47859788622755023,"(0.0, 0.0, 0.0, 0.0, 0.0, 0.0, 0.0, 0.0, 0.0)",0.019103,-0.013206,-0.26082,"(0.0, 0.0, 0.0, 0.0, 0.0, 0.0, 0.0, 0.0, 0.0)",-0.134,-1.353,-9.98,"(0.0, 0.0, 0.0, 0.0, 0.0, 0.0, 0.0, 0.0, 0.0)",0,0,0,,0.2631,-0.0541,0.6711,"(0.0, 0.0, 0.0, 0.0, 0.0, 0.0, 0.0, 0.0, 0.0)","b'$VNYMR,-122.817,+003.383,-001.198,+00.2631,-00.0541,+00.6711,-00.134,-01.353,-09.980,+00.019103,-00.013206,-00.260820"
1666974634.034358,0,1666974634,10783195,IMU1_Frame,0,0,0,,0.02080232035085128,0.023032258794256927,-0.8790224048240686,0.47576926165964734,"(0.0, 0.0, 0.0, 0.0, 0.0, 0.0, 0.0, 0.0, 0.0)",0.021545,-0.010581,-0.258919,"(0.0, 0.0, 0.0, 0.0, 0.0, 0.0, 0.0, 0.0, 0.0)",-0.172,-1.473,-9.971,"(0.0, 0.0, 0.0, 0.0, 0.0, 0.0, 0.0, 0.0, 0.0)",0,0,0,,0.265,-0.0502,0.6722,"(0.0, 0.0, 0.0, 0.0, 0.0, 0.0, 0.0, 0.0, 0.0)","b'$VNYMR,-123.186,+003.353,-001.188,+00.2650,-00.0502,+00.6722,-00.172,-01.473,-09.971,+00.021545,-00.010581,-00.258919"
1666974634.0371864,0,1666974634,36537647,IMU1_Frame,0,0,0,,0.020780225217965537,0.02277530431848972,-0.8805538875230352,0.4729421940588094,"(0.0, 0.0, 0.0, 0.0, 0.0, 0.0, 0.0, 0.0, 0.0)",0.023183,-0.001639,-0.25729,"(0.0, 0.0, 0.0, 0.0, 0.0, 0.0, 0.0, 0.0, 0.0)",-0.15,-1.622,-9.919,"(0.0, 0.0, 0.0, 0.0, 0.0, 0.0, 0.0, 0.0, 0.0)",0,0,0,,0.2631,-0.0531,0.671,"(0.0, 0.0, 0.0, 0.0, 0.0, 0.0, 0.0, 0.0, 0.0)","b'$VNYMR,-123.554,+003.333,-001.174,+00.2631,-00.0531,+00.6710,-00.150,-01.622,-09.919,+00.023183,-00.001639,-00.257290"
1666974634.0799696,0,1666974634,60379028,IMU1_Frame,0,0,0,,0.02082169475606943,0.022563489899330696,-0.882069538375502,0.4701177250658359,"(0.0, 0.0, 0.0, 0.0, 0.0, 0.0, 0.0, 0.0, 0.0)",0.021959,0.004013,-0.257366,"(0.0, 0.0, 0.0, 0.0, 0.0, 0.0, 0.0, 0.0, 0.0)",0.072,-1.668,-9.865,"(0.0, 0.0, 0.0, 0.0, 0.0, 0.0, 0.0, 0.0, 0.0)",0,0,0,,0.2622,-0.0432,0.6565,"(0.0, 0.0, 0.0, 0.0, 0.0, 0.0, 0.0, 0.0, 0.0)","b'$VNYMR,-123.921,+003.322,-001.161,+00.2622,-00.0432,+00.6565,+00.072,-01.668,-09.865,+00.021959,+00.004013,-00.257366"
1666974634.1224408,0,1666974634,88204145,IMU1_Frame,0,0,0,,0.020911831262728258,0.02242612748481721,-0.8835890567675178,0.4672581116256434,"(0.0, 0.0, 0.0, 0.0, 0.0, 0.0, 0.0, 0.0, 0.0)",0.016584,0.007213,-0.262055,"(0.0, 0.0, 0.0, 0.0, 0.0, 0.0, 0.0, 0.0, 0.0)",0.106,-1.751,-10.063,"(0.0, 0.0, 0.0, 0.0, 0.0, 0.0, 0.0, 0.0, 0.0)",0,0,0,,0.2602,-0.0531,0.6654,"(0.0, 0.0, 0.0, 0.0, 0.0, 0.0, 0.0, 0.0, 0.0)","b'$VNYMR,-124.292,+003.320,-001.153,+00.2602,-00.0531,+00.6654,+00.106,-01.751,-10.063,+00.016584,+00.007213,-00.262055"
1666974634.1661134,0,1666974634,124359130,IMU1_Frame,0,0,0,,0.02104710293936387,0.02237064408037167,-0.8851079054764945,0.46437115479355756,"(0.0, 0.0, 0.0, 0.0, 0.0, 0.0, 0.0, 0.0, 0.0)",0.012292,0.019692,-0.264765,"(0.0, 0.0, 0.0, 0.0, 0.0, 0.0, 0.0, 0.0, 0.0)",0.178,-1.685,-10.102,"(0.0, 0.0, 0.0, 0.0, 0.0, 0.0, 0.0, 0.0, 0.0)",0,0,0,,0.2603,-0.0511,0.6709,"(0.0, 0.0, 0.0, 0.0, 0.0, 0.0, 0.0, 0.0, 0.0)","b'$VNYMR,-124.666,+003.327,-001.151,+00.2603,-00.0511,+00.6709,+00.178,-01.685,-10.102,+00.012292,+00.019692,-00.264765"
1666974634.1661322,0,1666974634,136317968,IMU1_Frame,0,0,0,,0.021169990283511027,0.022395480024672947,-0.8866308739792256,0.4614498534973167,"(0.0, 0.0, 0.0, 0.0, 0.0, 0.0, 0.0, 0.0, 0.0)",0.006851,0.015445,-0.26676,"(0.0, 0.0, 0.0, 0.0, 0.0, 0.0, 0.0, 0.0, 0.0)",0.167,-1.644,-9.904,"(0.0, 0.0, 0.0, 0.0, 0.0, 0.0, 0.0, 0.0, 0.0)",0,0,0,,0.2585,-0.047,0.6708,"(0.0, 0.0, 0.0, 0.0, 0.0, 0.0, 0.0, 0.0, 0.0)","b'$VNYMR,-125.044,+003.337,-001.158,+00.2585,-00.0470,+00.6708,+00.167,-01.644,-09.904,+00.006851,+00.015445,-00.266760"
1666974634.166141,0,1666974634,160706758,IMU1_Frame,0,0,0,,0.02126248868212704,0.022461325660509186,-0.8881632840976852,0.4584859607506316,"(0.0, 0.0, 0.0, 0.0, 0.0, 0.0, 0.0, 0.0, 0.0)",0.004374,0.011431,-0.270264,"(0.0, 0.0, 0.0, 0.0, 0.0, 0.0, 0.0, 0.0, 0.0)",0.208,-1.535,-9.911,"(0.0, 0.0, 0.0, 0.0, 0.0, 0.0, 0.0, 0.0, 0.0)",0,0,0,,0.2538,-0.0379,0.6705,"(0.0, 0.0, 0.0, 0.0, 0.0, 0.0, 0.0, 0.0, 0.0)","b'$VNYMR,-125.427,+003.346,-001.171,+00.2538,-00.0379,+00.6705,+00.208,-01.535,-09.911,+00.004374,+00.011431,-00.270264"
1666974634.2099001,0,1666974634,184259653,IMU1_Frame,0,0,0,,0.021356239906235912,0.02250692953768447,-0.8896943728621467,0.45550112188367303,"(0.0, 0.0, 0.0, 0.0, 0.0, 0.0, 0.0, 0.0, 0.0)",0.008258,0.012007,-0.271802,"(0.0, 0.0, 0.0, 0.0, 0.0, 0.0, 0.0, 0.0, 0.0)",0.16,-1.225,-9.789,"(0.0, 0.0, 0.0, 0.0, 0.0, 0.0, 0.0, 0.0, 0.0)",0,0,0,,0.2537,-0.039,0.6583,"(0.0, 0.0, 0.0, 0.0, 0.0, 0.0, 0.0, 0.0, 0.0)","b'$VNYMR,-125.812,+003.354,-001.182,+00.2537,-00.0390,+00.6583,+00.160,-01.225,-09.789,+00.008258,+00.012007,-00.271802"
1666974634.2099195,0,1666974634,208974361,IMU1_Frame,0,0,0,,0.02140030424806877,0.02243895973058916,-0.8912161870806032,0.4525176548487476,"(0.0, 0.0, 0.0, 0.0, 0.0, 0.0, 0.0, 0.0, 0.0)",0.014344,0.00248,-0.269628,"(0.0, 0.0, 0.0, 0.0, 0.0, 0.0, 0.0, 0.0, 0.0)",0.391,-1.143,-9.707,"(0.0, 0.0, 0.0, 0.0, 0.0, 0.0, 0.0, 0.0, 0.0)",0,0,0,,0.252,-0.0309,0.6714,"(0.0, 0.0, 0.0, 0.0, 0.0, 0.0, 0.0, 0.0, 0.0)","b'$VNYMR,-126.196,+003.351,-001.184,+00.2520,-00.0309,+00.6714,+00.391,-01.143,-09.707,+00.014344,+00.002480,-00.269628"
1666974634.2355769,0,1666974634,235106229,IMU1_Frame,0,0,0,,0.02139755436678576,0.02228894044182174,-0.8927315763519849,0.4495282865239978,"(0.0, 0.0, 0.0, 0.0, 0.0, 0.0, 0.0, 0.0, 0.0)",0.021562,-0.006828,-0.269127,"(0.0, 0.0, 0.0, 0.0, 0.0, 0.0, 0.0, 0.0, 0.0)",0.295,-1.184,-9.625,"(0.0, 0.0, 0.0, 0.0, 0.0, 0.0, 0.0, 0.0, 0.0)",0,0,0,,0.2482,-0.0358,0.6735,"(0.0, 0.0, 0.0, 0.0, 0.0, 0.0, 0.0, 0.0, 0.0)","b'$VNYMR,-126.580,+003.339,-001.180,+00.2482,-00.0358,+00.6735,+00.295,-01.184,-09.625,+00.021562,-00.006828,-00.269127"
1666974634.2692475,0,1666974634,268743276,IMU1_Frame,0,0,0,,0.021335246224691858,0.022022439399212057,-0.8942379546723702,0.44654036755350085,"(0.0, 0.0, 0.0, 0.0, 0.0, 0.0, 0.0, 0.0, 0.0)",0.024431,-0.012327,-0.27029,"(0.0, 0.0, 0.0, 0.0, 0.0, 0.0, 0.0, 0.0, 0.0)",0.233,-1.177,-10.184,"(0.0, 0.0, 0.0, 0.0, 0.0, 0.0, 0.0, 0.0, 0.0)",0,0,0,,0.2519,-0.0418,0.6771,"(0.0, 0.0, 0.0, 0.0, 0.0, 0.0, 0.0, 0.0, 0.0)","b'$VNYMR,-126.963,+003.315,-001.167,+00.2519,-00.0418,+00.6771,+00.233,-01.177,-10.184,+00.024431,-00.012327,-00.270290"
1666974634.3099234,0,1666974634,286256551,IMU1_Frame,0,0,0,,0.021239852962807008,0.02172182434134698,-0.8957320860917279,0.44355502583012535,"(0.0, 0.0, 0.0, 0.0, 0.0, 0.0, 0.0, 0.0, 0.0)",0.023904,-0.008731,-0.270152,"(0.0, 0.0, 0.0, 0.0, 0.0, 0.0, 0.0, 0.0, 0.0)",0.152,-1.273,-10.455,"(0.0, 0.0, 0.0, 0.0, 0.0, 0.0, 0.0, 0.0, 0.0)",0,0,0,,0.251,-0.0368,0.6759,"(0.0, 0.0, 0.0, 0.0, 0.0, 0.0, 0.0, 0.0, 0.0)","b'$VNYMR,-127.345,+003.286,-001.152,+00.2510,-00.0368,+00.6759,+00.152,-01.273,-10.455,+00.023904,-00.008731,-00.270152"
1666974634.3538525,0,1666974634,310303926,IMU1_Frame,0,0,0,,0.021076530884667842,0.021497062498390115,-0.8972071822160966,0.4405824875430932,"(0.0, 0.0, 0.0, 0.0, 0.0, 0.0, 0.0, 0.0, 0.0)",0.012521,-0.011696,-0.269002,"(0.0, 0.0, 0.0, 0.0, 0.0, 0.0, 0.0, 0.0, 0.0)",0.335,-1.514,-10.094,"(0.0, 0.0, 0.0, 0.0, 0.0, 0.0, 0.0, 0.0, 0.0)",0,0,0,,0.251,-0.0299,0.6603,"(0.0, 0.0, 0.0, 0.0, 0.0, 0.0, 0.0, 0.0, 0.0)","b'$VNYMR,-127.725,+003.254,-001.148,+00.2510,-00.0299,+00.6603,+00.335,-01.514,-10.094,+00.012521,-00.011696,-00.269002"
1666974634.3538647,0,1666974634,334680318,IMU1_Frame,0,0,0,,0.020827711306171736,0.021406974470783525,-0.8986733185757608,0.43760051915620846,"(0.0, 0.0, 0.0, 0.0, 0.0, 0.0, 0.0, 0.0, 0.0)",-0.003116,-0.015853,-0.270399,"(0.0, 0.0, 0.0, 0.0, 0.0, 0.0, 0.0, 0.0, 0.0)",0.112,-1.714,-10.29,"(0.0, 0.0, 0.0, 0.0, 0.0, 0.0, 0.0, 0.0, 0.0)",0,0,0,,0.2491,-0.0408,0.6769,"(0.0, 0.0, 0.0, 0.0, 0.0, 0.0, 0.0, 0.0, 0.0)","b'$VNYMR,-128.106,+003.220,-001.162,+00.2491,-00.0408,+00.6769,+00.112,-01.714,-10.290,-00.003116,-00.015853,-00.270399"
1666974634.397863,0,1666974634,359522819,IMU1_Frame,0,0,0,,0.020530701281236803,0.02145899608596544,-0.9001447570134251,0.4345772868122825,"(0.0, 0.0, 0.0, 0.0, 0.0, 0.0, 0.0, 0.0, 0.0)",-0.01219,-0.01448,-0.272785,"(0.0, 0.0, 0.0, 0.0, 0.0, 0.0, 0.0, 0.0, 0.0)",0.113,-1.681,-10.276,"(0.0, 0.0, 0.0, 0.0, 0.0, 0.0, 0.0, 0.0, 0.0)",0,0,0,,0.251,-0.0349,0.6714,"(0.0, 0.0, 0.0, 0.0, 0.0, 0.0, 0.0, 0.0, 0.0)","b'$VNYMR,-128.492,+003.188,-001.193,+00.2510,-00.0349,+00.6714,+00.113,-01.681,-10.276,-00.012190,-00.014480,-00.272785"
1666974634.3978748,0,1666974634,383782148,IMU1_Frame,0,0,0,,0.020196468921345266,0.021572267736456395,-0.9016084728833302,0.4315424678207292,"(0.0, 0.0, 0.0, 0.0, 0.0, 0.0, 0.0, 0.0, 0.0)",-0.013384,-0.012785,-0.274785,"(0.0, 0.0, 0.0, 0.0, 0.0, 0.0, 0.0, 0.0, 0.0)",0.123,-1.681,-10.002,"(0.0, 0.0, 0.0, 0.0, 0.0, 0.0, 0.0, 0.0, 0.0)",0,0,0,,0.2512,-0.0219,0.6735,"(0.0, 0.0, 0.0, 0.0, 0.0, 0.0, 0.0, 0.0, 0.0)","b'$VNYMR,-128.879,+003.155,-001.232,+00.2512,-00.0219,+00.6735,+00.123,-01.681,-10.002,-00.013384,-00.012785,-00.274785"
1666974634.442051,0,1666974634,408825159,IMU1_Frame,0,0,0,,0.019878949497431755,0.021655824389446864,-0.9030775748531604,0.4284702398466274,"(0.0, 0.0, 0.0, 0.0, 0.0, 0.0, 0.0, 0.0, 0.0)",-0.007538,-0.016748,-0.277203,"(0.0, 0.0, 0.0, 0.0, 0.0, 0.0, 0.0, 0.0, 0.0)",-0.001,-1.779,-9.927,"(0.0, 0.0, 0.0, 0.0, 0.0, 0.0, 0.0, 0.0, 0.0)",0,0,0,,0.2491,-0.0388,0.6714,"(0.0, 0.0, 0.0, 0.0, 0.0, 0.0, 0.0, 0.0, 0.0)","b'$VNYMR,-129.270,+003.122,-001.267,+00.2491,-00.0388,+00.6714,-00.001,-01.779,-09.927,-00.007538,-00.016748,-00.277203"
1666974634.4420795,0,1666974634,435813903,IMU1_Frame,0,0,0,,0.01961486774948664,0.02161076687147341,-0.9045616770912932,0.4253426901407663,"(0.0, 0.0, 0.0, 0.0, 0.0, 0.0, 0.0, 0.0, 0.0)",0.003853,-0.020721,-0.280238,"(0.0, 0.0, 0.0, 0.0, 0.0, 0.0, 0.0, 0.0, 0.0)",-0.068,-1.782,-9.858,"(0.0, 0.0, 0.0, 0.0, 0.0, 0.0, 0.0, 0.0, 0.0)",0,0,0,,0.2472,-0.0348,0.6579,"(0.0, 0.0, 0.0, 0.0, 0.0, 0.0, 0.0, 0.0, 0.0)","b'$VNYMR,-129.667,+003.088,-001.286,+00.2472,-00.0348,+00.6579,-00.068,-01.782,-09.858,+00.003853,-00.020721,-00.280238"
1666974634.4861677,0,1666974634,459562063,IMU1_Frame,0,0,0,,0.0194834897710901,0.02138751102397843,-0.9060604134164221,0.4221581400828383,"(0.0, 0.0, 0.0, 0.0, 0.0, 0.0, 0.0, 0.0, 0.0)",0.023053,-0.013084,-0.284793,"(0.0, 0.0, 0.0, 0.0, 0.0, 0.0, 0.0, 0.0, 0.0)",-0.191,-1.469,-9.809,"(0.0, 0.0, 0.0, 0.0, 0.0, 0.0, 0.0, 0.0, 0.0)",0,0,0,,0.2472,-0.0377,0.6691,"(0.0, 0.0, 0.0, 0.0, 0.0, 0.0, 0.0, 0.0, 0.0)","b'$VNYMR,-130.070,+003.059,-001.280,+00.2472,-00.0377,+00.6691,-00.191,-01.469,-09.809,+00.023053,-00.013084,-00.284793"
1666974634.487852,0,1666974634,486881494,IMU1_Frame,0,0,0,,0.019506054183481964,0.020976149508128802,-0.9075730175877942,0.4189161404727555,"(0.0, 0.0, 0.0, 0.0, 0.0, 0.0, 0.0, 0.0, 0.0)",0.040559,-0.010025,-0.288933,"(0.0, 0.0, 0.0, 0.0, 0.0, 0.0, 0.0, 0.0, 0.0)",-0.204,-1.559,-10.171,"(0.0, 0.0, 0.0, 0.0, 0.0, 0.0, 0.0, 0.0, 0.0)",0,0,0,,0.2509,-0.0398,0.6648,"(0.0, 0.0, 0.0, 0.0, 0.0, 0.0, 0.0, 0.0, 0.0)","b'$VNYMR,-130.479,+003.037,-001.247,+00.2509,-00.0398,+00.6648,-00.204,-01.559,-10.171,+00.040559,-00.010025,-00.288933"
1666974634.531488,0,1666974634,509619235,IMU1_Frame,0,0,0,,0.019673040830778747,0.020476103440592953,-0.9091102814651979,0.4155865695455391,"(0.0, 0.0, 0.0, 0.0, 0.0, 0.0, 0.0, 0.0, 0.0)",0.049007,0.000674,-0.297873,"(0.0, 0.0, 0.0, 0.0, 0.0, 0.0, 0.0, 0.0, 0.0)",-0.198,-1.918,-9.999,"(0.0, 0.0, 0.0, 0.0, 0.0, 0.0, 0.0, 0.0, 0.0)",0,0,0,,0.2472,-0.0417,0.6702,"(0.0, 0.0, 0.0, 0.0, 0.0, 0.0, 0.0, 0.0, 0.0)","b'$VNYMR,-130.898,+003.026,-001.198,+00.2472,-00.0417,+00.6702,-00.198,-01.918,-09.999,+00.049007,+00.000674,-00.297873"
1666974634.5744288,0,1666974634,536750316,IMU1_Frame,0,0,0,,0.019960446165353602,0.019999841182922126,-0.9106681779870723,0.4121711495765368,"(0.0, 0.0, 0.0, 0.0, 0.0, 0.0, 0.0, 0.0, 0.0)",0.048617,0.014899,-0.305456,"(0.0, 0.0, 0.0, 0.0, 0.0, 0.0, 0.0, 0.0, 0.0)",-0.109,-1.874,-10.188,"(0.0, 0.0, 0.0, 0.0, 0.0, 0.0, 0.0, 0.0, 0.0)",0,0,0,,0.2444,-0.0347,0.6667,"(0.0, 0.0, 0.0, 0.0, 0.0, 0.0, 0.0, 0.0, 0.0)","b'$VNYMR,-131.327,+003.029,-001.146,+00.2444,-00.0347,+00.6667,-00.109,-01.874,-10.188,+00.048617,+00.014899,-00.305456"
1666974634.5744576,0,1666974634,569393634,IMU1_Frame,0,0,0,,0.020304657405807842,0.019603160203961807,-0.9122488214067155,0.40866309454085636,"(0.0, 0.0, 0.0, 0.0, 0.0, 0.0, 0.0, 0.0, 0.0)",0.044148,0.01915,-0.310757,"(0.0, 0.0, 0.0, 0.0, 0.0, 0.0, 0.0, 0.0, 0.0)",0.183,-1.798,-9.68,"(0.0, 0.0, 0.0, 0.0, 0.0, 0.0, 0.0, 0.0, 0.0)",0,0,0,,0.2406,-0.0286,0.6498,"(0.0, 0.0, 0.0, 0.0, 0.0, 0.0, 0.0, 0.0, 0.0)","b'$VNYMR,-131.767,+003.042,-001.100,+00.2406,-00.0286,+00.6498,+00.183,-01.798,-09.680,+00.044148,+00.019150,-00.310757"
1666974634.6187909,0,1666974634,584144353,IMU1_Frame,0,0,0,,0.02062525506643177,0.019317138677355836,-0.9138376551440904,0.40509528144316237,"(0.0, 0.0, 0.0, 0.0, 0.0, 0.0, 0.0, 0.0, 0.0)",0.037421,0.017308,-0.315457,"(0.0, 0.0, 0.0, 0.0, 0.0, 0.0, 0.0, 0.0, 0.0)",0.13,-1.738,-10.053,"(0.0, 0.0, 0.0, 0.0, 0.0, 0.0, 0.0, 0.0, 0.0)",0,0,0,,0.2397,-0.0316,0.6642,"(0.0, 0.0, 0.0, 0.0, 0.0, 0.0, 0.0, 0.0, 0.0)","b'$VNYMR,-132.214,+003.058,-001.067,+00.2397,-00.0316,+00.6642,+00.130,-01.738,-10.053,+00.037421,+00.017308,-00.315457"
1666974634.618808,0,1666974634,609915494,IMU1_Frame,0,0,0,,0.020922529408276463,0.01912251293450786,-0.9154346760745511,0.4014672229491607,"(0.0, 0.0, 0.0, 0.0, 0.0, 0.0, 0.0, 0.0, 0.0)",0.03063,0.017012,-0.320195,"(0.0, 0.0, 0.0, 0.0, 0.0, 0.0, 0.0, 0.0, 0.0)",0.272,-1.617,-9.864,"(0.0, 0.0, 0.0, 0.0, 0.0, 0.0, 0.0, 0.0, 0.0)",0,0,0,,0.2406,-0.0286,0.6532,"(0.0, 0.0, 0.0, 0.0, 0.0, 0.0, 0.0, 0.0, 0.0)","b'$VNYMR,-132.668,+003.076,-001.045,+00.2406,-00.0286,+00.6532,+00.272,-01.617,-09.864,+00.030630,+00.017012,-00.320195"
1666974634.6653745,0,1666974634,635085821,IMU1_Frame,0,0,0,,0.021154023304890184,0.018944119299063356,-0.9170352744096597,0.39779383244389194,"(0.0, 0.0, 0.0, 0.0, 0.0, 0.0, 0.0, 0.0, 0.0)",0.02892,0.017479,-0.322817,"(0.0, 0.0, 0.0, 0.0, 0.0, 0.0, 0.0, 0.0, 0.0)",0.356,-1.596,-10.04,"(0.0, 0.0, 0.0, 0.0, 0.0, 0.0, 0.0, 0.0, 0.0)",0,0,0,,0.2369,-0.0334,0.6696,"(0.0, 0.0, 0.0, 0.0, 0.0, 0.0, 0.0, 0.0, 0.0)","b'$VNYMR,-133.127,+003.088,-001.028,+00.2369,-00.0334,+00.6696,+00.356,-01.596,-10.040,+00.028920,+00.017479,-00.322817"
1666974634.6654031,0,1666974634,659261941,IMU1_Frame,0,0,0,,0.021309472221404748,0.01874053315878539,-0.918636930182279,0.394082338243987,"(0.0, 0.0, 0.0, 0.0, 0.0, 0.0, 0.0, 0.0, 0.0)",0.028835,0.005856,-0.324882,"(0.0, 0.0, 0.0, 0.0, 0.0, 0.0, 0.0, 0.0, 0.0)",0.332,-1.475,-9.72,"(0.0, 0.0, 0.0, 0.0, 0.0, 0.0, 0.0, 0.0, 0.0)",0,0,0,,0.2351,-0.0254,0.6728,"(0.0, 0.0, 0.0, 0.0, 0.0, 0.0, 0.0, 0.0, 0.0)","b'$VNYMR,-133.590,+003.091,-001.012,+00.2351,-00.0254,+00.6728,+00.332,-01.475,-09.720,+00.028835,+00.005856,-00.324882"
1666974634.7059543,0,1666974634,685344696,IMU1_Frame,0,0,0,,0.02139692515215168,0.01846985183715918,-0.9202266555674895,0.39036385405185736,"(0.0, 0.0, 0.0, 0.0, 0.0, 0.0, 0.0, 0.0, 0.0)",0.030574,-0.001115,-0.327606,"(0.0, 0.0, 0.0, 0.0, 0.0, 0.0, 0.0, 0.0, 0.0)",-0.033,-1.957,-10.031,"(0.0, 0.0, 0.0, 0.0, 0.0, 0.0, 0.0, 0.0, 0.0)",0,0,0,,0.2341,-0.0195,0.6605,"(0.0, 0.0, 0.0, 0.0, 0.0, 0.0, 0.0, 0.0, 0.0)","b'$VNYMR,-134.053,+003.084,-000.992,+00.2341,-00.0195,+00.6605,-00.033,-01.957,-10.031,+00.030574,-00.001115,-00.327606"
1666974634.7105508,0,1666974634,709989547,IMU1_Frame,0,0,0,,0.0214622504525649,0.018180054235809456,-0.9218123037261214,0.3866147101865567,"(0.0, 0.0, 0.0, 0.0, 0.0, 0.0, 0.0, 0.0, 0.0)",0.028663,0.003142,-0.327396,"(0.0, 0.0, 0.0, 0.0, 0.0, 0.0, 0.0, 0.0, 0.0)",-0.161,-2.075,-10.15,"(0.0, 0.0, 0.0, 0.0, 0.0, 0.0, 0.0, 0.0, 0.0)",0,0,0,,0.2342,-0.0234,0.6727,"(0.0, 0.0, 0.0, 0.0, 0.0, 0.0, 0.0, 0.0, 0.0)","b'$VNYMR,-134.519,+003.074,-000.971,+00.2342,-00.0234,+00.6727,-00.161,-02.075,-10.150,+00.028663,+00.003142,-00.327396"
